timestamp_s,acc_x,acc_y,acc_z,gyro_roll,gyro_pitch,gyro_yaw,altitude_m,pressure_hPa,mag_north,mag_east,mag_down,roll_deg,pitch_deg,yaw_deg,speed_mps,flight_phase
0.0,1.39611,-0.01777,-9.63794,0.002833,-0.010951,0.003155,0.149,1013.232,0.19845,0.12462,0.47205,0.0,8.0,45.0,0.0,takeoff
0.01,1.26018,-0.0228,-9.78552,0.001138,-0.004599,-0.001423,0.754,1013.1594,0.19801,0.13089,0.46917,0.0,8.0,45.0,0.038,takeoff
0.02,1.35335,-0.12755,-9.77799,0.002818,-0.005994,0.003008,0.914,1013.1402,0.20234,0.12984,0.45899,0.0,8.0,45.0,0.075,takeoff
0.03,1.42811,0.09163,-9.52287,0.002154,-0.002867,-0.000399,1.155,1013.1112,0.20828,0.12153,0.47379,0.0,8.0,45.0,0.113,takeoff
0.04,1.53461,0.02484,-9.6048,-0.003054,0.000369,0.001339,1.633,1013.0539,0.2029,0.12972,0.46921,0.0,8.0,45.0,0.15,takeoff
0.0501,1.3493,-0.03401,-9.73732,0.006943,-0.002256,0.003463,1.721,1013.0433,0.2003,0.12439,0.47551,0.0,8.0,45.0,0.188,takeoff
0.0601,1.31649,-0.10098,-9.81468,0.002476,0.002941,0.002578,2.198,1012.9859,0.20916,0.1198,0.46518,0.0,8.0,45.0,0.225,takeoff
0.0701,1.3029,-0.1093,-9.73389,0.001864,-0.001745,-0.006269,2.71,1012.9244,0.20109,0.13582,0.46275,0.0,8.0,45.0,0.263,takeoff
0.0801,1.36912,-0.10019,-9.5799,-0.002312,-0.005202,-0.002601,2.819,1012.9114,0.20912,0.13462,0.46657,0.0,8.0,45.0,0.3,takeoff
0.0901,1.43913,-0.03605,-9.55332,-0.000578,-0.000598,0.004571,3.151,1012.8715,0.20135,0.13056,0.46978,0.0,8.0,45.0,0.338,takeoff
0.1001,1.37106,-0.04817,-9.70168,0.006204,-0.001063,0.002031,3.264,1012.858,0.21779,0.13209,0.46639,0.0,8.0,45.0,0.375,takeoff
0.1101,1.3293,-0.06762,-9.8137,-0.001123,-0.000658,0.005868,3.406,1012.8409,0.19992,0.12315,0.46782,0.0,8.0,45.0,0.413,takeoff
0.1201,1.45625,0.00645,-9.72931,0.000189,-0.002835,-0.002851,4.021,1012.7671,0.20802,0.13199,0.46895,0.0,8.0,45.0,0.45,takeoff
0.1301,1.40192,0.01756,-9.5565,-0.003429,0.000245,0.001441,4.045,1012.7641,0.19514,0.12488,0.47724,0.0,8.0,45.0,0.488,takeoff
0.1401,1.51233,0.0465,-9.43747,0.000844,0.000892,0.000151,4.427,1012.7183,0.20218,0.11526,0.47644,0.0,8.0,45.0,0.526,takeoff
0.1502,1.35626,-0.05153,-9.7288,0.000356,0.003327,0.007791,4.555,1012.7029,0.20379,0.12039,0.47494,0.0,8.0,45.0,0.563,takeoff
0.1602,1.35781,-0.08821,-9.81592,-0.000454,0.002894,0.003161,5.205,1012.6248,0.19223,0.12523,0.48042,0.0,8.0,45.0,0.601,takeoff
0.1702,1.42192,-0.13681,-9.795,-0.002636,0.003175,0.002252,5.29,1012.6147,0.20573,0.11253,0.46458,0.0,8.0,45.0,0.638,takeoff
0.1802,1.40991,0.05028,-9.70138,-0.00018,0.00106,-0.00284,5.74,1012.5607,0.20589,0.13414,0.46885,0.0,8.0,45.0,0.676,takeoff
0.1902,1.42053,0.07154,-9.60093,0.000297,-0.003343,0.001095,6.133,1012.5135,0.20833,0.12182,0.47068,0.0,8.0,45.0,0.713,takeoff
0.2002,1.46406,-0.05222,-9.6587,0.000392,-0.002163,-0.003356,6.518,1012.4673,0.20169,0.13069,0.46689,0.0,8.0,45.0,0.751,takeoff
0.2102,1.31271,0.00446,-9.76823,0.001599,0.000306,0.00067,6.605,1012.4568,0.20226,0.13008,0.46653,0.0,8.0,45.0,0.788,takeoff
0.2202,1.42899,-0.06125,-9.78087,0.003251,-0.001901,0.000663,6.902,1012.4211,0.21003,0.12225,0.46937,0.0,8.0,45.0,0.826,takeoff
0.2302,1.4076,0.05003,-9.6124,0.006392,-0.002434,0.000846,7.181,1012.3876,0.19898,0.12038,0.46735,0.0,8.0,45.0,0.863,takeoff
0.2402,1.48588,0.02728,-9.55799,0.004631,0.002697,0.005338,7.379,1012.3638,0.20309,0.13463,0.47121,0.0,8.0,45.0,0.901,takeoff
0.2503,1.37726,0.0263,-9.61176,-0.000772,-0.001298,0.004334,7.633,1012.3333,0.20563,0.11999,0.46508,0.0,8.0,45.0,0.938,takeoff
0.2603,1.31629,-0.03206,-9.83239,-0.001015,-0.001791,-0.001891,8.172,1012.2687,0.21122,0.12517,0.46899,0.0,8.0,45.0,0.976,takeoff
0.2703,1.37253,-0.14789,-9.75789,0.010225,-0.002312,0.001187,8.52,1012.2269,0.21379,0.13044,0.45922,0.0,8.0,45.0,1.014,takeoff
0.2803,1.43412,0.13439,-9.57961,-0.00255,-0.001091,-0.002309,8.893,1012.1821,0.20078,0.12593,0.46571,0.0,8.0,45.0,1.051,takeoff
0.2903,1.40192,0.10343,-9.52789,-0.000773,-0.00537,-0.004073,8.821,1012.1908,0.20612,0.13046,0.4672,0.0,8.0,45.0,1.089,takeoff
0.3003,1.47024,-0.04436,-9.67033,-0.002321,0.001031,0.007844,9.045,1012.1639,0.20383,0.13189,0.46277,0.0,8.0,45.0,1.126,takeoff
0.3103,1.37315,0.00554,-9.81094,0.00256,0.00336,0.007386,9.6,1012.0973,0.2029,0.12096,0.47488,0.0,8.0,45.0,1.164,takeoff
0.3203,1.28427,-0.06009,-9.78244,-0.000586,-0.00109,0.009254,9.891,1012.0623,0.20339,0.13064,0.4712,0.0,8.0,45.0,1.201,takeoff
0.3303,1.47675,0.01275,-9.62648,-0.004422,-0.006799,-0.003952,10.267,1012.0172,0.19875,0.13184,0.47015,0.0,8.0,45.0,1.239,takeoff
0.3403,1.41701,-0.01313,-9.50147,-0.001477,-0.004885,0.00512,10.563,1011.9816,0.20439,0.12877,0.47004,0.0,8.0,45.0,1.276,takeoff
0.3504,1.41169,-0.04853,-9.55129,-0.000802,0.002746,0.00099,10.932,1011.9375,0.20923,0.1313,0.4658,0.0,8.0,45.0,1.314,takeoff
0.3604,1.39893,0.03698,-9.82595,0.001028,-0.0035,0.000519,11.368,1011.8851,0.20054,0.12085,0.47805,0.0,8.0,45.0,1.351,takeoff
0.3704,1.38326,0.05748,-9.81281,0.001315,-0.003896,0.001996,11.145,1011.9119,0.20899,0.12718,0.46971,0.0,8.0,45.0,1.389,takeoff
0.3804,1.3843,-0.04155,-9.58128,-0.002574,-0.000371,0.007783,11.934,1011.8171,0.19804,0.12288,0.47211,0.0,8.0,45.0,1.426,takeoff
0.3904,1.42594,-0.04098,-9.51296,0.000908,0.003829,0.000787,12.187,1011.7868,0.19923,0.12042,0.47361,0.0,8.0,45.0,1.464,takeoff
0.4004,1.44785,-0.05456,-9.64998,-0.003204,-0.002456,0.004065,12.247,1011.7796,0.20432,0.11991,0.46676,0.0,8.0,45.0,1.502,takeoff
0.4104,1.43367,-0.05099,-9.86138,2e-06,-0.006702,-0.001483,12.816,1011.7113,0.20485,0.13502,0.46952,0.0,8.0,45.0,1.539,takeoff
0.4204,1.34965,-0.01717,-9.92648,0.001561,-0.002053,0.00601,13.057,1011.6824,0.1999,0.13177,0.46869,0.0,8.0,45.0,1.577,takeoff
0.4304,1.35765,0.01212,-9.63141,0.005565,-0.000878,0.002163,13.348,1011.6475,0.21103,0.12948,0.4771,0.0,8.0,45.0,1.614,takeoff
0.4404,1.46016,0.03741,-9.47016,0.000678,-0.001806,0.006705,13.757,1011.5985,0.20552,0.1233,0.47732,0.0,8.0,45.0,1.652,takeoff
0.4505,1.43494,0.01013,-9.66381,0.001934,-0.001958,-0.000442,13.833,1011.5893,0.20689,0.12369,0.47452,0.0,8.0,45.0,1.689,takeoff
0.4605,1.411,-0.00543,-9.82339,0.003212,-0.001639,-0.002158,14.215,1011.5435,0.20629,0.13853,0.47729,0.0,8.0,45.0,1.727,takeoff
0.4705,1.38624,-0.03745,-9.78729,-0.002036,-0.007092,-0.001066,14.407,1011.5205,0.19504,0.12284,0.46876,0.0,8.0,45.0,1.764,takeoff
0.4805,1.39104,-0.03182,-9.64188,0.006142,0.000115,-0.000121,14.704,1011.4848,0.20542,0.12172,0.46615,0.0,8.0,45.0,1.802,takeoff
0.4905,1.48025,0.0083,-9.58645,0.00084,-0.0015,-0.004356,15.009,1011.4483,0.2099,0.12782,0.48115,0.0,8.0,45.0,1.839,takeoff
0.5005,1.45857,0.06794,-9.50419,0.003247,-0.001374,0.004488,15.231,1011.4216,0.2061,0.12232,0.47199,0.0,8.0,45.0,1.877,takeoff
0.5105,1.3143,-0.08793,-9.78691,0.000558,-0.007652,-0.002808,15.443,1011.3962,0.20115,0.12764,0.47109,0.0,8.0,45.0,1.914,takeoff
0.5205,1.40307,-0.01294,-9.74437,0.002823,-0.001243,0.004842,16.054,1011.323,0.20744,0.13192,0.45827,0.0,8.0,45.0,1.952,takeoff
0.5305,1.38605,-0.01508,-9.57078,0.005705,-0.006223,0.005783,16.04,1011.3246,0.19986,0.12439,0.46841,0.0,8.0,45.0,1.989,takeoff
0.5405,1.35191,0.06166,-9.49757,0.004158,-0.003166,0.001425,16.512,1011.268,0.214,0.11139,0.46522,0.0,8.0,45.0,2.027,takeoff
0.5506,1.39735,-0.05768,-9.6533,0.000621,-0.003847,0.00173,16.911,1011.2201,0.20438,0.1233,0.46917,0.0,8.0,45.0,2.065,takeoff
0.5606,1.34715,-0.13996,-9.78249,-0.000363,0.001898,0.003321,17.292,1011.1744,0.20051,0.12371,0.46379,0.0,8.0,45.0,2.102,takeoff
0.5706,1.31388,0.01119,-9.72607,-0.002447,-0.003251,0.00132,17.505,1011.1489,0.19676,0.11755,0.47245,0.0,8.0,45.0,2.14,takeoff
0.5806,1.30209,-0.02321,-9.62376,0.002252,-0.002319,0.000459,17.844,1011.1082,0.20699,0.12233,0.47019,0.0,8.0,45.0,2.177,takeoff
0.5906,1.44885,0.11516,-9.49207,0.004651,-0.00372,-1.2e-05,17.982,1011.0916,0.20485,0.12052,0.47633,0.0,8.0,45.0,2.215,takeoff
0.6006,1.44237,-0.01763,-9.60472,0.001666,0.000257,-0.00248,18.296,1011.054,0.20527,0.12868,0.46686,0.0,8.0,45.0,2.252,takeoff
0.6106,1.22334,-0.10636,-9.80629,0.001194,0.003155,0.003288,18.631,1011.0139,0.2054,0.13108,0.46705,0.0,8.0,45.0,2.29,takeoff
0.6206,1.34159,-0.10661,-9.7316,0.00217,-0.004026,0.001193,18.995,1010.9702,0.20431,0.12289,0.46673,0.0,8.0,45.0,2.327,takeoff
0.6306,1.41585,-0.01975,-9.65815,-0.003029,-0.001684,0.000984,19.171,1010.9491,0.20656,0.1293,0.47351,0.0,8.0,45.0,2.365,takeoff
0.6406,1.45772,0.01748,-9.55987,-0.002152,-0.003709,0.001586,19.401,1010.9215,0.20604,0.12074,0.4617,0.0,8.0,45.0,2.402,takeoff
0.6507,1.44042,-0.02468,-9.67522,-0.002291,-0.000673,0.005649,19.759,1010.8786,0.20449,0.13092,0.46095,0.0,8.0,45.0,2.44,takeoff
0.6607,1.44741,0.07084,-9.93659,0.000708,-0.004103,0.000725,20.057,1010.8428,0.20962,0.125,0.46545,0.0,8.0,45.0,2.477,takeoff
0.6707,1.33952,-0.02669,-9.86399,-0.003926,0.004029,-0.000397,20.4,1010.8018,0.20357,0.1283,0.47886,0.0,8.0,45.0,2.515,takeoff
0.6807,1.42663,-0.07865,-9.70841,-0.00018,-0.002758,-0.003631,20.843,1010.7486,0.20013,0.13303,0.4791,0.0,8.0,45.0,2.553,takeoff
0.6907,1.41737,0.05141,-9.59326,0.002891,-0.003437,-0.001732,20.977,1010.7325,0.20323,0.12394,0.47475,0.0,8.0,45.0,2.59,takeoff
0.7007,1.36116,0.08662,-9.69608,0.005867,-0.004993,0.001533,21.247,1010.7001,0.20384,0.12957,0.4775,0.0,8.0,45.0,2.628,takeoff
0.7107,1.40914,-0.07116,-9.7897,-0.001336,-0.004908,-0.001898,21.556,1010.6632,0.20681,0.116,0.46977,0.0,8.0,45.0,2.665,takeoff
0.7207,1.42307,0.00291,-9.8362,-0.003194,-0.000541,-0.005389,22.088,1010.5993,0.2045,0.13472,0.46137,0.0,8.0,45.0,2.703,takeoff
0.7307,1.44235,-0.00899,-9.65931,-0.003102,-0.000119,0.003593,22.49,1010.5512,0.2106,0.12259,0.46498,0.0,8.0,45.0,2.74,takeoff
0.7407,1.36135,0.1029,-9.57062,0.005431,-0.00035,0.002557,22.476,1010.5528,0.20887,0.12549,0.46815,0.0,8.0,45.0,2.778,takeoff
0.7508,1.43626,-0.00605,-9.66591,0.002784,-0.002126,0.003033,22.754,1010.5195,0.19952,0.13424,0.47773,0.0,8.0,45.0,2.815,takeoff
0.7608,1.39446,-0.06937,-9.81149,0.005138,-0.00301,-0.000336,23.404,1010.4416,0.20533,0.13441,0.46301,0.0,8.0,45.0,2.853,takeoff
0.7708,1.37239,0.04988,-9.80729,0.000214,-0.005463,0.004817,23.308,1010.4532,0.20509,0.11939,0.47778,0.0,8.0,45.0,2.89,takeoff
0.7808,1.45292,-0.00656,-9.70416,0.005609,-0.003052,-0.001734,23.459,1010.435,0.20233,0.11829,0.46689,0.0,8.0,45.0,2.928,takeoff
0.7908,1.4667,0.01048,-9.5143,-0.001162,-0.00175,0.007333,23.971,1010.3736,0.20749,0.11774,0.4776,0.0,8.0,45.0,2.965,takeoff
0.8008,1.37832,0.05455,-9.62913,0.002854,5.9e-05,0.000215,24.488,1010.3117,0.20177,0.12945,0.46805,0.0,8.0,45.0,3.003,takeoff
0.8108,1.3681,-0.07227,-9.79197,-0.002202,-0.001206,0.001708,24.543,1010.305,0.20529,0.12623,0.46692,0.0,8.0,45.0,3.041,takeoff
0.8208,1.33903,-0.10432,-9.69372,0.004191,-0.001143,0.005101,24.628,1010.2949,0.19278,0.12357,0.46311,0.0,8.0,45.0,3.078,takeoff
0.8308,1.38176,0.00445,-9.60415,-0.002399,-0.000752,0.001627,25.277,1010.2171,0.20296,0.13248,0.46948,0.0,8.0,45.0,3.116,takeoff
0.8408,1.5178,-0.01013,-9.49531,0.000822,-0.002924,0.003477,25.48,1010.1927,0.19225,0.11025,0.47636,0.0,8.0,45.0,3.153,takeoff
0.8509,1.46461,0.09773,-9.62026,-0.002873,-0.003206,0.001631,25.674,1010.1695,0.21381,0.13676,0.47239,0.0,8.0,45.0,3.191,takeoff
0.8609,1.35085,-0.11321,-9.71438,0.001225,-0.002818,0.003041,26.038,1010.1259,0.2063,0.11835,0.47544,0.0,8.0,45.0,3.228,takeoff
0.8709,1.33978,0.00313,-9.82303,0.000577,-0.005585,0.003893,26.295,1010.0952,0.20313,0.12557,0.47061,0.0,8.0,45.0,3.266,takeoff
0.8809,1.30743,-0.01856,-9.61423,-0.000155,-0.002618,0.002074,26.708,1010.0457,0.20041,0.12538,0.47497,0.0,8.0,45.0,3.303,takeoff
0.8909,1.37651,0.01056,-9.60209,0.003804,-0.002224,-0.000972,27.041,1010.0058,0.19955,0.1204,0.4627,0.0,8.0,45.0,3.341,takeoff
0.9009,1.35075,0.07228,-9.6527,0.002389,-0.004459,0.003855,27.173,1009.9899,0.20576,0.12583,0.48164,0.0,8.0,45.0,3.378,takeoff
0.9109,1.38389,-0.07701,-9.75486,0.007401,-0.006858,-0.000962,27.592,1009.9397,0.20348,0.1239,0.46348,0.0,8.0,45.0,3.416,takeoff
0.9209,1.41481,-0.12629,-9.82461,0.004134,-0.002081,-0.001381,27.725,1009.9237,0.20441,0.12178,0.47103,0.0,8.0,45.0,3.453,takeoff
0.9309,1.32167,0.03265,-9.65196,0.001562,0.00235,0.000252,28.119,1009.8766,0.20282,0.1246,0.46955,0.0,8.0,45.0,3.491,takeoff
0.9409,1.38755,-0.07186,-9.56174,0.002066,-0.001551,0.005157,28.822,1009.7924,0.20936,0.13248,0.47383,0.0,8.0,45.0,3.529,takeoff
0.951,1.4908,0.09813,-9.56524,0.003116,-0.002589,0.001445,28.778,1009.7976,0.20867,0.12196,0.46904,0.0,8.0,45.0,3.566,takeoff
0.961,1.23537,0.03959,-9.79766,0.00236,0.00239,0.002467,29.345,1009.7296,0.19935,0.13755,0.47544,0.0,8.0,45.0,3.604,takeoff
0.971,1.35462,0.01584,-9.87529,0.00013,0.002344,-0.004029,29.513,1009.7096,0.20822,0.13541,0.46209,0.0,8.0,45.0,3.641,takeoff
0.981,1.47112,-0.03687,-9.68418,-0.002676,-0.005246,0.002787,29.563,1009.7036,0.20926,0.12225,0.46393,0.0,8.0,45.0,3.679,takeoff
0.991,1.40238,0.04594,-9.54842,0.001092,0.000102,0.004825,29.983,1009.6533,0.20034,0.12594,0.47235,0.0,8.0,45.0,3.716,takeoff
1.001,1.33337,-0.03812,-9.64556,0.000371,-0.004249,0.003708,30.089,1009.6405,0.19766,0.12389,0.46912,0.0,8.0,45.0,3.754,takeoff
1.011,1.28131,-0.07625,-9.80416,-0.000175,-0.00148,-0.000392,30.852,1009.5492,0.208,0.12153,0.47047,0.0,8.0,45.0,3.791,takeoff
1.021,1.34992,0.00465,-9.84839,0.003311,-0.001803,0.006057,31.124,1009.5166,0.20655,0.12425,0.47253,0.0,8.0,45.0,3.829,takeoff
1.031,1.38073,0.07391,-9.66153,-0.000212,-0.003312,-0.00205,31.314,1009.4938,0.20146,0.13105,0.46354,0.0,8.0,45.0,3.866,takeoff
1.041,1.43537,0.08653,-9.64273,0.007058,-0.003208,0.002023,31.617,1009.4576,0.20919,0.12693,0.47499,0.0,8.0,45.0,3.904,takeoff
1.0511,1.43359,0.09573,-9.58019,0.006906,0.00077,-0.003824,32.223,1009.385,0.20269,0.13304,0.47013,0.0,8.0,45.0,3.941,takeoff
1.0611,1.40832,-0.07932,-9.74983,0.000264,0.002811,0.002893,32.272,1009.3791,0.19474,0.12514,0.47205,0.0,8.0,45.0,3.979,takeoff
1.0711,1.35484,-0.00831,-9.83798,0.001166,0.001619,-0.005251,32.521,1009.3494,0.20389,0.121,0.47168,0.0,8.0,45.0,4.017,takeoff
1.0811,1.45041,0.04085,-9.67596,0.003656,0.000683,0.001328,32.628,1009.3364,0.20239,0.12975,0.46979,0.0,8.0,45.0,4.054,takeoff
1.0911,1.37667,-0.05551,-9.49448,-0.000611,-0.000937,0.005307,32.836,1009.3115,0.20534,0.12471,0.4719,0.0,8.0,45.0,4.092,takeoff
1.1011,1.47097,-0.0578,-9.57471,0.004125,-0.002488,0.001157,33.396,1009.2445,0.20729,0.12848,0.47281,0.0,8.0,45.0,4.129,takeoff
1.1111,1.30724,0.00561,-9.72025,0.001584,-0.00641,0.001222,33.662,1009.2126,0.19984,0.12376,0.46295,0.0,8.0,45.0,4.167,takeoff
1.1211,1.37375,-0.04845,-9.9037,0.002078,-0.002093,0.003105,33.875,1009.1872,0.20156,0.12171,0.46731,0.0,8.0,45.0,4.204,takeoff
1.1311,1.38888,-0.00509,-9.6826,-0.000263,-0.002981,0.009086,34.118,1009.158,0.20277,0.14203,0.47211,0.0,8.0,45.0,4.242,takeoff
1.1411,1.35976,0.0705,-9.58238,0.003751,-0.002552,0.000229,34.776,1009.0793,0.2084,0.13043,0.47217,0.0,8.0,45.0,4.279,takeoff
1.1512,1.38744,0.03999,-9.53931,0.001426,0.003489,0.004102,34.866,1009.0685,0.20682,0.12625,0.46374,0.0,8.0,45.0,4.317,takeoff
1.1612,1.35234,-0.03203,-9.79607,0.00204,-0.001861,0.003872,35.234,1009.0244,0.2064,0.11873,0.47895,0.0,8.0,45.0,4.354,takeoff
1.1712,1.33567,-0.06136,-9.83952,-0.000434,0.002715,0.005701,35.502,1008.9924,0.20503,0.12866,0.47037,0.0,8.0,45.0,4.392,takeoff
1.1812,1.37713,0.00339,-9.69853,0.001785,-0.001331,0.003345,35.643,1008.9755,0.20911,0.12103,0.46714,0.0,8.0,45.0,4.429,takeoff
1.1912,1.40186,-0.02557,-9.48693,-0.001884,-0.004051,0.005305,35.95,1008.9387,0.20462,0.1205,0.47416,0.0,8.0,45.0,4.467,takeoff
1.2012,1.45299,0.04737,-9.56953,0.001243,-0.00355,-0.000904,36.53,1008.8693,0.20939,0.1221,0.4702,0.0,8.0,45.0,4.505,takeoff
1.2112,1.34283,-0.0987,-9.76306,-0.000234,-0.00483,-0.00291,36.402,1008.8846,0.20371,0.12514,0.46562,0.0,8.0,45.0,4.542,takeoff
1.2212,1.37486,-0.06109,-9.79454,0.000464,-0.004336,0.001873,36.747,1008.8433,0.20826,0.12088,0.47459,0.0,8.0,45.0,4.58,takeoff
1.2312,1.36851,0.03833,-9.73599,-0.001019,-0.000835,0.005027,37.487,1008.7547,0.20577,0.13475,0.46855,0.0,8.0,45.0,4.617,takeoff
1.2412,1.48289,-0.01938,-9.51735,-0.006025,-0.005348,0.002915,37.34,1008.7723,0.2077,0.1301,0.46749,0.0,8.0,45.0,4.655,takeoff
1.2513,1.36335,-0.01239,-9.64147,0.00069,-0.001671,0.000594,38.089,1008.6827,0.20197,0.13252,0.46479,0.0,8.0,45.0,4.692,takeoff
1.2613,1.36288,0.01771,-9.71232,-0.000277,-0.000315,0.002778,38.057,1008.6865,0.20864,0.13488,0.47236,0.0,8.0,45.0,4.73,takeoff
1.2713,1.37099,-0.0247,-9.89773,0.002368,-0.005011,-0.000262,38.762,1008.6021,0.2043,0.12186,0.47576,0.0,8.0,45.0,4.767,takeoff
1.2813,1.33736,-0.03852,-9.6214,0.001115,-0.006641,0.00314,38.679,1008.6121,0.21326,0.12253,0.47526,0.0,8.0,45.0,4.805,takeoff
1.2913,1.51679,-0.01546,-9.54963,0.002147,-0.004544,0.002314,39.005,1008.573,0.20434,0.12581,0.47036,0.0,8.0,45.0,4.842,takeoff
1.3013,1.42085,-0.01797,-9.61817,0.000615,-0.002124,0.000178,39.388,1008.5272,0.19649,0.12191,0.4686,0.0,8.0,45.0,4.88,takeoff
1.3113,1.3172,0.04081,-9.76511,0.001491,-0.003433,0.001453,39.457,1008.5189,0.20471,0.12088,0.46861,0.0,8.0,45.0,4.917,takeoff
1.3213,1.21413,-0.11498,-9.75264,0.003442,0.001971,0.005645,40.041,1008.4491,0.2033,0.12038,0.47573,0.0,8.0,45.0,4.955,takeoff
1.3313,1.38672,0.10753,-9.70598,0.006865,-0.002453,0.005499,40.494,1008.3948,0.20045,0.12314,0.46484,0.0,8.0,45.0,4.992,takeoff
1.3413,1.36602,0.0601,-9.55099,0.001096,-0.000303,-0.004097,40.733,1008.3662,0.20382,0.12823,0.4731,0.0,8.0,45.0,5.03,takeoff
1.3514,1.48219,0.00765,-9.69341,0.001098,-0.001362,-0.001611,40.863,1008.3507,0.20376,0.11885,0.47336,0.0,8.0,45.0,5.068,takeoff
1.3614,1.33262,-0.0602,-9.78597,0.004638,-0.002088,0.001707,41.075,1008.3253,0.20788,0.13231,0.47324,0.0,8.0,45.0,5.105,takeoff
1.3714,1.37573,-0.02883,-9.89576,-0.001717,-0.002579,-0.000711,41.281,1008.3006,0.1962,0.11883,0.46872,0.0,8.0,45.0,5.143,takeoff
1.3814,1.37848,-0.05818,-9.68737,-0.000401,0.001309,0.000983,41.846,1008.2331,0.20658,0.11855,0.46955,0.0,8.0,45.0,5.18,takeoff
1.3914,1.36497,0.02073,-9.57954,0.002056,-0.005989,0.001524,42.128,1008.1994,0.2101,0.12174,0.47009,0.0,8.0,45.0,5.218,takeoff
1.4014,1.42341,0.09085,-9.65827,-0.001823,0.006451,0.000671,42.058,1008.2077,0.20265,0.11172,0.4712,0.0,8.0,45.0,5.255,takeoff
1.4114,1.40199,-0.08473,-9.78296,0.003671,-0.007185,-0.002471,42.608,1008.1419,0.2018,0.12409,0.46368,0.0,8.0,45.0,5.293,takeoff
1.4214,1.35187,-0.06686,-9.80018,0.001505,-0.001309,-0.002826,43.017,1008.093,0.20391,0.12473,0.47524,0.0,8.0,45.0,5.33,takeoff
1.4314,1.34496,0.04779,-9.62291,0.00317,-0.004887,-0.005032,43.405,1008.0466,0.20612,0.12184,0.47587,0.0,8.0,45.0,5.368,takeoff
1.4414,1.38321,0.0042,-9.51759,-0.002432,-0.002273,0.004782,43.575,1008.0262,0.2118,0.13123,0.47004,0.0,8.0,45.0,5.405,takeoff
1.4515,1.29812,-0.0412,-9.54334,-0.003737,-0.002931,0.002531,44.064,1007.9677,0.20269,0.12235,0.46974,0.0,8.0,45.0,5.443,takeoff
1.4615,1.38,-0.04602,-9.70384,-0.001487,-0.001571,0.002871,44.084,1007.9653,0.20976,0.12631,0.47394,0.0,8.0,45.0,5.48,takeoff
1.4715,1.35056,-0.04109,-9.85992,-0.000981,0.001742,0.003438,44.291,1007.9406,0.20647,0.11369,0.46713,0.0,8.0,45.0,5.518,takeoff
1.4815,1.42772,-0.02746,-9.69278,-0.008127,-0.003111,0.002542,44.814,1007.878,0.21038,0.12451,0.46917,0.0,8.0,45.0,5.556,takeoff
1.4915,1.35905,0.01471,-9.60831,-0.004612,-0.005195,0.006053,45.004,1007.8552,0.20666,0.123,0.46105,0.0,8.0,45.0,5.593,takeoff
1.5015,1.46248,-0.09361,-9.60601,0.000752,-0.001241,-0.000633,45.069,1007.8475,0.20156,0.12182,0.46613,0.0,8.0,45.0,5.631,takeoff
1.5115,1.41211,-0.09795,-9.73747,0.001398,0.000963,0.001138,45.764,1007.7644,0.2047,0.12774,0.46249,0.0,8.0,45.0,5.668,takeoff
1.5215,1.20896,-0.04132,-9.80706,0.002352,-0.003502,0.006005,45.877,1007.7509,0.20767,0.12854,0.47859,0.0,8.0,45.0,5.706,takeoff
1.5315,1.36296,-0.05488,-9.77713,0.005591,-0.000662,0.00288,46.713,1007.6508,0.20719,0.11905,0.46902,0.0,8.0,45.0,5.743,takeoff
1.5415,1.37657,0.00443,-9.56695,-0.000841,-0.00612,0.006304,46.591,1007.6654,0.20444,0.12935,0.47236,0.0,8.0,45.0,5.781,takeoff
1.5516,1.43038,0.04978,-9.56881,0.002952,0.000333,0.001995,46.813,1007.6388,0.21322,0.12317,0.47196,0.0,8.0,45.0,5.818,takeoff
1.5616,1.38531,-0.06714,-9.7895,-0.000106,-0.003394,-0.002883,47.049,1007.6107,0.20689,0.13189,0.47277,0.0,8.0,45.0,5.856,takeoff
1.5716,1.21057,-0.02865,-9.8571,0.002311,-0.001949,0.000919,47.432,1007.5649,0.20545,0.13229,0.4699,0.0,8.0,45.0,5.893,takeoff
1.5816,1.4319,0.02326,-9.67236,-0.004421,0.00145,0.000102,47.855,1007.5143,0.2007,0.11964,0.47988,0.0,8.0,45.0,5.931,takeoff
1.5916,1.37692,0.08083,-9.542,-0.000323,-0.002023,-0.002427,48.046,1007.4915,0.20015,0.12359,0.47463,0.0,8.0,45.0,5.968,takeoff
1.6016,1.43014,-0.0578,-9.52985,0.000911,-0.003507,0.003726,48.323,1007.4583,0.19974,0.1348,0.46991,0.0,8.0,45.0,6.006,takeoff
1.6116,1.36155,-0.05582,-9.68635,-0.00063,-0.006506,-0.000539,48.847,1007.3956,0.20972,0.12429,0.47687,0.0,8.0,45.0,6.044,takeoff
1.6216,1.37774,-0.07405,-9.83774,0.00194,-0.004364,0.001511,48.995,1007.378,0.19713,0.12462,0.46848,0.0,8.0,45.0,6.081,takeoff
1.6316,1.42787,-0.11679,-9.72829,-0.000495,0.001,0.001357,49.518,1007.3154,0.20887,0.12351,0.4712,0.0,8.0,45.0,6.119,takeoff
1.6416,1.40656,0.06629,-9.61643,-0.001524,-0.000511,0.00518,49.219,1007.3512,0.21244,0.12486,0.46058,0.0,8.0,45.0,6.156,takeoff
1.6517,1.26823,-0.05937,-9.57096,0.000749,3.1e-05,-0.000135,49.683,1007.2957,0.2035,0.12573,0.47115,0.0,8.0,45.0,6.194,takeoff
1.6617,1.32704,0.0104,-9.77297,-0.001665,-0.003489,0.004735,50.13,1007.2423,0.20209,0.13019,0.48071,0.0,8.0,45.0,6.231,takeoff
1.6717,1.35072,0.00059,-9.77811,-0.000859,-0.001776,-0.002349,50.419,1007.2077,0.20243,0.12355,0.46625,0.0,8.0,45.0,6.269,takeoff
1.6817,1.36066,0.00053,-9.71873,-0.004634,-0.004078,-0.003061,50.787,1007.1637,0.20808,0.12685,0.46606,0.0,8.0,45.0,6.306,takeoff
1.6917,1.43577,-0.00127,-9.60837,0.00319,0.00062,0.004333,50.959,1007.1431,0.21146,0.1231,0.47327,0.0,8.0,45.0,6.344,takeoff
1.7017,1.39301,0.00629,-9.68824,6.3e-05,-0.001575,0.00025,51.614,1007.0648,0.19975,0.12275,0.46548,0.0,8.0,45.0,6.381,takeoff
1.7117,1.33902,0.0178,-9.66436,-0.001123,-0.004013,-0.001994,51.847,1007.037,0.21117,0.12503,0.46302,0.0,8.0,45.0,6.419,takeoff
1.7217,1.27445,-0.05281,-9.80236,-0.005214,-0.002809,0.006332,51.919,1007.0284,0.21301,0.12881,0.46458,0.0,8.0,45.0,6.456,takeoff
1.7317,1.35939,-0.03379,-9.76396,-0.001919,0.002668,-0.001454,52.414,1006.9693,0.20338,0.12544,0.47281,0.0,8.0,45.0,6.494,takeoff
1.7417,1.39311,0.0499,-9.65557,0.002307,-0.009274,0.000788,52.68,1006.9374,0.20867,0.11907,0.46415,0.0,8.0,45.0,6.532,takeoff
1.7518,1.38516,0.02757,-9.66615,0.000964,-0.00093,0.000606,52.931,1006.9074,0.20668,0.12286,0.46032,0.0,8.0,45.0,6.569,takeoff
1.7618,1.37528,-0.08026,-9.76356,0.002425,0.002387,0.001357,53.236,1006.871,0.19834,0.12679,0.4697,0.0,8.0,45.0,6.607,takeoff
1.7718,1.40135,-0.08829,-9.84208,0.004162,-0.002128,-0.001852,53.836,1006.7993,0.20017,0.12524,0.47173,0.0,8.0,45.0,6.644,takeoff
1.7818,1.38617,-0.03764,-9.72911,0.000286,-0.005213,0.007935,53.72,1006.8131,0.20855,0.12389,0.46823,0.0,8.0,45.0,6.682,takeoff
1.7918,1.3995,-0.05652,-9.56343,-0.000234,0.001658,-0.002114,53.967,1006.7836,0.20107,0.13278,0.46565,0.0,8.0,45.0,6.719,takeoff
1.8018,1.44814,0.06733,-9.56959,-0.003141,-0.005946,0.004054,54.165,1006.76,0.20752,0.12614,0.47189,0.0,8.0,45.0,6.757,takeoff
1.8118,1.39292,-0.07855,-9.77996,0.003138,-0.003744,-0.006783,54.752,1006.6899,0.20038,0.1279,0.47696,0.0,8.0,45.0,6.794,takeoff
1.8218,1.34048,-0.01191,-9.82251,0.005771,-0.005032,0.001436,55.056,1006.6535,0.20461,0.13132,0.46784,0.0,8.0,45.0,6.832,takeoff
1.8318,1.47518,0.07646,-9.70934,0.002673,0.001722,-0.002113,55.058,1006.6532,0.21185,0.12693,0.46887,0.0,8.0,45.0,6.869,takeoff
1.8418,1.42212,-0.09893,-9.56693,-0.001234,0.000884,0.004443,55.642,1006.5835,0.20754,0.11808,0.47295,0.0,8.0,45.0,6.907,takeoff
1.8519,1.45225,0.08181,-9.45408,-0.004055,-0.003038,-0.000765,55.881,1006.5549,0.20563,0.12439,0.47514,0.0,8.0,45.0,6.944,takeoff
1.8619,1.3153,-0.08288,-9.77882,-5.2e-05,-0.005566,0.001323,56.131,1006.525,0.20163,0.12993,0.4697,0.0,8.0,45.0,6.982,takeoff
1.8719,1.39273,-0.07138,-9.83161,-0.000659,-0.001914,0.003604,56.394,1006.4936,0.20816,0.1215,0.4738,0.0,8.0,45.0,7.02,takeoff
1.8819,1.34164,0.01197,-9.72421,0.005606,-0.005339,-0.002954,56.664,1006.4614,0.19864,0.11865,0.47311,0.0,8.0,45.0,7.057,takeoff
1.8919,1.42059,-0.00431,-9.57914,-0.00076,0.00308,-0.000724,56.858,1006.4381,0.20954,0.12448,0.48019,0.0,8.0,45.0,7.095,takeoff
1.9019,1.39493,0.06255,-9.50372,-0.000525,-0.004092,0.003711,57.443,1006.3683,0.19851,0.11992,0.45732,0.0,8.0,45.0,7.132,takeoff
1.9119,1.40105,-0.04269,-9.73232,-0.004036,-0.005164,3.4e-05,57.557,1006.3547,0.20615,0.12848,0.48135,0.0,8.0,45.0,7.17,takeoff
1.9219,1.33853,-0.00558,-9.87199,-0.003983,-0.002925,-0.00332,57.96,1006.3065,0.20166,0.11579,0.47868,0.0,8.0,45.0,7.207,takeoff
1.9319,1.34255,-0.11361,-9.68616,-0.001158,0.001409,-0.000707,58.177,1006.2806,0.20729,0.12853,0.47384,0.0,8.0,45.0,7.245,takeoff
1.9419,1.41553,0.04521,-9.52498,0.001631,-0.00229,-0.002839,58.648,1006.2243,0.20577,0.1235,0.47639,0.0,8.0,45.0,7.282,takeoff
1.952,1.35074,0.10277,-9.55711,0.002002,-0.003057,-0.003502,58.838,1006.2017,0.20724,0.12894,0.46901,0.0,8.0,45.0,7.32,takeoff
1.962,1.2631,-0.10578,-9.61826,-0.002236,0.002403,-0.001304,59.131,1006.1666,0.20869,0.12146,0.47796,0.0,8.0,45.0,7.357,takeoff
1.972,1.34361,-0.03839,-9.84416,0.003031,0.002877,0.001109,59.719,1006.0964,0.20251,0.12938,0.47245,0.0,8.0,45.0,7.395,takeoff
1.982,1.31503,-0.02203,-9.73459,-0.001509,-0.000761,0.001937,59.749,1006.0929,0.20522,0.12511,0.46816,0.0,8.0,45.0,7.432,takeoff
1.992,1.42651,-0.01391,-9.43238,-0.003183,-0.003607,-5e-06,60.366,1006.0191,0.19896,0.12769,0.47124,0.0,8.0,45.0,7.47,takeoff
2.002,0.4169,0.08327,-9.583,-0.000298,-10.473222,0.022112,60.315,1006.0252,0.20155,0.12467,0.46157,0.0,2.0,45.02,15.0,cruise
2.012,0.37146,-0.11238,-9.79948,-0.00261,-0.004377,0.136002,60.388,1006.0165,0.21106,0.13361,0.46614,0.0,2.0,45.09,15.0,cruise
2.022,0.39229,-0.13473,-9.88292,-0.000427,-0.004604,0.134389,60.442,1006.0101,0.20969,0.12709,0.47066,0.0,2.0,45.17,15.0,cruise
2.032,0.37138,-0.01873,-9.801,0.001665,0.000722,0.127656,60.28,1006.0294,0.19799,0.1276,0.47821,0.0,2.0,45.24,15.0,cruise
2.042,0.37248,0.02378,-9.61934,-0.005156,-0.003377,0.133613,59.865,1006.0789,0.19982,0.13192,0.47501,0.0,2.0,45.32,15.0,cruise
2.0521,0.41933,0.06615,-9.6312,0.002722,-0.002746,0.132859,60.205,1006.0383,0.21082,0.13423,0.4769,0.0,2.0,45.39,15.0,cruise
2.0621,0.33171,-0.07394,-9.73962,0.002691,-0.000816,0.130614,60.364,1006.0194,0.19887,0.12999,0.47689,0.0,2.0,45.47,15.0,cruise
2.0721,0.39872,-0.02575,-9.98914,0.001645,0.004608,0.12992,60.291,1006.0281,0.21116,0.13011,0.4824,0.0,2.0,45.54,15.0,cruise
2.0821,0.30707,-0.08422,-9.77053,-0.002536,-0.002381,0.132329,60.455,1006.0084,0.20695,0.12951,0.46799,0.0,2.0,45.62,15.0,cruise
2.0921,0.45619,0.21804,-9.62546,0.001342,-0.005672,0.13062,60.268,1006.0308,0.201,0.12735,0.47889,0.0,2.0,45.69,15.0,cruise
2.1021,0.46383,0.01494,-9.7009,0.005062,-0.001913,0.127347,60.407,1006.0142,0.2086,0.1155,0.46588,0.0,2.0,45.77,15.0,cruise
2.1121,0.34785,0.01168,-9.82597,-0.001448,0.000414,0.131108,60.381,1006.0173,0.19771,0.12107,0.47378,0.0,2.0,45.84,15.0,cruise
2.1221,0.33005,-0.01497,-9.94654,-0.001339,0.002328,0.127947,60.488,1006.0046,0.20966,0.13233,0.46656,0.0,2.0,45.92,15.0,cruise
2.1321,0.302,-0.0464,-9.9001,-0.001852,0.000164,0.13448,60.143,1006.0458,0.20623,0.1305,0.47755,0.0,2.0,45.99,15.0,cruise
2.1421,0.42333,0.06889,-9.63872,0.003972,-0.005638,0.132164,60.294,1006.0277,0.20142,0.13065,0.47317,0.0,2.0,46.07,15.0,cruise
2.1522,0.42166,0.01437,-9.67557,0.004308,-0.000713,0.12947,60.271,1006.0305,0.19372,0.12881,0.46901,0.0,2.0,46.14,15.0,cruise
2.1622,0.32601,0.05507,-9.85418,0.00315,0.004798,0.135772,60.295,1006.0276,0.19656,0.12202,0.46794,0.0,2.0,46.22,15.0,cruise
2.1722,0.28347,-0.09686,-9.93577,0.000726,-0.000298,0.128834,60.198,1006.0392,0.20122,0.12805,0.47918,0.0,2.0,46.29,15.0,cruise
2.1822,0.35367,-0.11736,-9.81805,0.002676,-0.002125,0.128904,60.564,1005.9955,0.19646,0.13253,0.471,0.0,2.0,46.37,15.0,cruise
2.1922,0.42418,0.10086,-9.63735,-0.000617,0.001559,0.130651,60.325,1006.0241,0.19514,0.12426,0.47026,0.0,2.0,46.44,15.0,cruise
2.2022,0.42087,-0.06111,-9.61232,-0.0014,0.002084,0.131484,60.131,1006.0471,0.20177,0.12504,0.47634,0.0,2.0,46.52,15.0,cruise
2.2122,0.35573,-0.03031,-9.76354,-0.001953,-0.005624,0.13375,60.135,1006.0467,0.19568,0.13401,0.47263,0.0,2.0,46.59,15.0,cruise
2.2222,0.25502,-0.09147,-9.96447,0.006391,0.00095,0.131245,60.386,1006.0167,0.19419,0.12666,0.47052,0.0,2.0,46.67,15.0,cruise
2.2322,0.36306,-0.04231,-9.83022,0.001298,-0.002253,0.131624,60.236,1006.0346,0.20192,0.13227,0.47099,0.0,2.0,46.74,15.0,cruise
2.2422,0.3337,-0.03526,-9.6484,0.005484,-0.001325,0.131264,60.334,1006.023,0.19487,0.13696,0.47093,0.0,2.0,46.82,15.0,cruise
2.2523,0.369,0.01639,-9.66196,0.005024,-0.002399,0.132971,60.386,1006.0167,0.19664,0.13158,0.47137,0.0,2.0,46.89,15.0,cruise
2.2623,0.27871,-0.00876,-9.7915,0.001472,-0.001685,0.133276,60.501,1006.003,0.19423,0.1291,0.47333,0.0,2.0,46.97,15.0,cruise
2.2723,0.34178,-0.03704,-9.78072,0.00293,0.001602,0.131573,60.151,1006.0448,0.19835,0.13457,0.47203,0.0,2.0,47.04,15.0,cruise
2.2823,0.35964,-0.04898,-9.86438,0.000537,0.000386,0.135004,60.149,1006.045,0.20352,0.12795,0.47234,0.0,2.0,47.12,15.0,cruise
2.2923,0.38245,0.0924,-9.69191,0.001617,5.8e-05,0.129874,60.289,1006.0283,0.19817,0.12883,0.4678,0.0,2.0,47.19,15.0,cruise
2.3023,0.45878,-0.00474,-9.60557,0.002032,-0.005953,0.134034,60.088,1006.0523,0.20243,0.12906,0.47004,0.0,2.0,47.27,15.0,cruise
2.3123,0.2928,-0.01422,-9.73911,-0.001346,-0.003571,0.133832,60.372,1006.0184,0.1869,0.14187,0.47264,0.0,2.0,47.34,15.0,cruise
2.3223,0.3525,-0.06724,-10.01041,0.003092,-0.003447,0.134089,60.267,1006.0309,0.20005,0.12811,0.47432,0.0,2.0,47.42,15.0,cruise
2.3323,0.27879,0.0729,-9.73718,0.005954,0.002075,0.132195,60.475,1006.0061,0.19817,0.12441,0.47752,0.0,2.0,47.49,15.0,cruise
2.3423,0.44709,0.01159,-9.7351,-0.00071,-0.007223,0.135289,60.06,1006.0557,0.19987,0.12816,0.46287,0.0,2.0,47.57,15.0,cruise
2.3524,0.41486,0.00878,-9.59054,-0.002757,-0.004033,0.125297,59.972,1006.0661,0.20722,0.14299,0.47046,0.0,2.0,47.64,15.0,cruise
2.3624,0.31697,-0.03415,-9.73797,-0.000498,-0.001051,0.132426,60.215,1006.0372,0.19538,0.13423,0.46512,0.0,2.0,47.72,15.0,cruise
2.3724,0.34033,-0.0834,-9.91025,0.005203,-0.00227,0.135225,60.031,1006.0591,0.19545,0.1331,0.47962,0.0,2.0,47.79,15.0,cruise
2.3824,0.23907,-0.04541,-9.77945,-0.001311,-0.002413,0.133468,60.328,1006.0237,0.20541,0.13539,0.47664,0.0,2.0,47.87,15.0,cruise
2.3924,0.37177,-0.02503,-9.68823,-0.002429,-0.000319,0.131318,60.199,1006.039,0.19986,0.12763,0.47385,0.0,2.0,47.94,15.0,cruise
2.4024,0.37953,0.08375,-9.65119,0.002944,-0.001224,0.134717,60.316,1006.025,0.18884,0.13858,0.46956,0.0,2.0,48.02,15.0,cruise
2.4124,0.39873,0.01617,-9.81689,-0.001687,0.000202,0.131589,60.44,1006.0102,0.19605,0.13885,0.47212,0.0,2.0,48.09,15.0,cruise
2.4224,0.33235,-0.07829,-9.90447,0.004639,-0.00192,0.134095,60.307,1006.0262,0.19735,0.14254,0.47601,0.0,2.0,48.17,15.0,cruise
2.4324,0.33992,-0.03071,-9.89082,0.000544,-0.000836,0.135061,60.412,1006.0136,0.19097,0.139,0.46956,0.0,2.0,48.24,15.0,cruise
2.4424,0.33935,0.07806,-9.6069,0.001882,0.000358,0.134812,60.509,1006.002,0.19994,0.12767,0.48005,0.0,2.0,48.32,15.0,cruise
2.4525,0.45696,0.0008,-9.68159,0.002601,-0.002608,0.133515,60.412,1006.0137,0.19325,0.12892,0.47193,0.0,2.0,48.39,15.0,cruise
2.4625,0.33354,-0.00995,-9.84152,0.000323,0.000367,0.134327,60.182,1006.0411,0.19003,0.13477,0.47281,0.0,2.0,48.47,15.0,cruise
2.4725,0.33845,-0.0851,-9.9001,0.005579,-0.00118,0.127616,60.33,1006.0234,0.20587,0.12844,0.47015,0.0,2.0,48.54,15.0,cruise
2.4825,0.32374,-0.03775,-9.84891,0.00452,-0.001544,0.136331,60.282,1006.0291,0.19368,0.13173,0.46091,0.0,2.0,48.62,15.0,cruise
2.4925,0.40162,0.11284,-9.66008,0.003169,-0.003045,0.131779,60.448,1006.0094,0.20526,0.1427,0.47403,0.0,2.0,48.69,15.0,cruise
2.5025,0.40581,0.03682,-9.66668,-0.003238,-0.005193,0.13266,60.256,1006.0322,0.18765,0.13527,0.46841,0.0,2.0,48.77,15.0,cruise
2.5125,0.30309,-0.03453,-9.78671,-0.000736,0.000965,0.126796,60.002,1006.0626,0.1948,0.13612,0.47202,0.0,2.0,48.84,15.0,cruise
2.5225,0.29177,-0.10475,-9.91403,-0.000213,0.002826,0.131536,60.292,1006.028,0.20694,0.13486,0.47278,0.0,2.0,48.92,15.0,cruise
2.5325,0.36667,-0.00656,-9.84714,0.001676,-0.001531,0.130789,60.349,1006.0212,0.20449,0.14207,0.47152,0.0,2.0,48.99,15.0,cruise
2.5425,0.42993,-0.03382,-9.69892,0.003941,0.002636,0.130203,60.227,1006.0357,0.20504,0.13669,0.47912,0.0,2.0,49.07,15.0,cruise
2.5526,0.41479,0.03944,-9.64294,0.003936,0.002257,0.129416,60.247,1006.0333,0.19849,0.13575,0.46753,0.0,2.0,49.14,15.0,cruise
2.5626,0.41306,0.04074,-9.78909,0.001755,-0.005435,0.12983,60.319,1006.0248,0.19385,0.13175,0.46642,0.0,2.0,49.22,15.0,cruise
2.5726,0.26579,-0.03533,-10.01045,-0.00193,-0.007394,0.133779,60.03,1006.0593,0.19364,0.14497,0.47837,0.0,2.0,49.29,15.0,cruise
2.5826,0.24307,-0.02882,-9.91388,-0.002464,-0.002155,0.136197,60.39,1006.0163,0.18968,0.14049,0.45878,0.0,2.0,49.37,15.0,cruise
2.5926,0.34842,-0.03226,-9.68509,0.000512,-0.002239,0.13197,60.303,1006.0266,0.19574,0.1379,0.46858,0.0,2.0,49.44,15.0,cruise
2.6026,0.42488,0.06896,-9.65419,0.000946,0.001652,0.129176,60.571,1005.9947,0.18613,0.13561,0.46525,0.0,2.0,49.52,15.0,cruise
2.6126,0.47337,-0.03843,-9.78778,2.5e-05,-0.001528,0.131487,60.28,1006.0294,0.17496,0.13781,0.47009,0.0,2.0,49.59,15.0,cruise
2.6226,0.3715,0.00777,-9.92025,0.003583,-0.00512,0.134792,60.214,1006.0373,0.18646,0.13678,0.477,0.0,2.0,49.67,15.0,cruise
2.6326,0.34165,0.03011,-9.90495,0.004273,-0.003776,0.133181,60.333,1006.0231,0.19547,0.13915,0.4663,0.0,2.0,49.74,15.0,cruise
2.6426,0.42926,0.0945,-9.72158,-0.00438,-0.000314,0.131497,60.28,1006.0294,0.19472,0.1358,0.46866,0.0,2.0,49.82,15.0,cruise
2.6527,0.40019,0.10146,-9.62424,-0.002583,-0.005417,0.132898,60.131,1006.0472,0.18391,0.14145,0.47342,0.0,2.0,49.89,15.0,cruise
2.6627,0.34682,0.0026,-9.74996,0.002939,-1.5e-05,0.124659,60.264,1006.0313,0.19409,0.1364,0.47018,0.0,2.0,49.97,15.0,cruise
2.6727,0.35755,-0.05311,-9.83429,0.004506,-0.002187,0.131886,59.872,1006.0781,0.18965,0.13187,0.47111,0.0,2.0,50.05,15.0,cruise
2.6827,0.33954,-0.0105,-9.80068,0.001056,0.004983,0.133169,60.103,1006.0505,0.18825,0.13696,0.47296,0.0,2.0,50.12,15.0,cruise
2.6927,0.3369,-0.00774,-9.7036,-0.000208,0.000575,0.1344,60.475,1006.0061,0.18918,0.14502,0.46318,0.0,2.0,50.2,15.0,cruise
2.7027,0.336,-0.0324,-9.62445,0.004746,-0.003668,0.13104,60.268,1006.0309,0.19348,0.13681,0.46733,0.0,2.0,50.27,15.0,cruise
2.7127,0.29891,-0.03955,-9.69663,0.001409,-0.00407,0.136171,60.212,1006.0375,0.19749,0.1464,0.47028,0.0,2.0,50.35,15.0,cruise
2.7227,0.24544,0.05776,-9.88871,0.000164,0.00102,0.134586,60.497,1006.0035,0.18686,0.14116,0.46407,0.0,2.0,50.42,15.0,cruise
2.7327,0.36403,-0.04745,-9.85902,0.000694,-0.002592,0.129886,60.419,1006.0128,0.1974,0.13696,0.47277,0.0,2.0,50.5,15.0,cruise
2.7427,0.40454,0.00623,-9.77512,-0.002773,-0.004184,0.126071,60.511,1006.0018,0.19157,0.13978,0.45905,0.0,2.0,50.57,15.0,cruise
2.7528,0.31414,0.0281,-9.52564,-0.000967,0.000759,0.13105,60.308,1006.026,0.19558,0.13838,0.46655,0.0,2.0,50.65,15.0,cruise
2.7628,0.43807,-0.00806,-9.69719,-0.000924,0.002376,0.133301,60.365,1006.0192,0.18994,0.13777,0.46999,0.0,2.0,50.72,15.0,cruise
2.7728,0.29877,-0.0089,-9.91668,-0.003336,-0.006884,0.127292,60.393,1006.0159,0.1833,0.14198,0.47068,0.0,2.0,50.8,15.0,cruise
2.7828,0.32674,-0.02589,-9.86813,-0.006962,-0.002814,0.133754,60.546,1005.9976,0.19727,0.13384,0.46825,0.0,2.0,50.87,15.0,cruise
2.7928,0.30398,0.08054,-9.65154,0.002218,-0.001348,0.136618,60.482,1006.0053,0.1944,0.14312,0.46825,0.0,2.0,50.95,15.0,cruise
2.8028,0.44442,0.06893,-9.63293,9.9e-05,0.001553,0.137472,60.188,1006.0404,0.18707,0.14278,0.47243,0.0,2.0,51.02,15.0,cruise
2.8128,0.34257,0.08496,-9.7268,0.002765,0.003431,0.131109,60.287,1006.0286,0.1819,0.14034,0.46256,0.0,2.0,51.1,15.0,cruise
2.8228,0.35936,-0.03517,-9.91861,0.000869,0.000466,0.129057,60.331,1006.0233,0.19144,0.13247,0.47342,0.0,2.0,51.17,15.0,cruise
2.8328,0.24621,-0.05424,-9.93683,0.005455,-0.005284,0.127507,60.32,1006.0246,0.18565,0.13404,0.47263,0.0,2.0,51.25,15.0,cruise
2.8428,0.28239,-0.04821,-9.73419,0.003555,0.00207,0.135767,60.277,1006.0298,0.17535,0.1437,0.47735,0.0,2.0,51.32,15.0,cruise
2.8529,0.46842,0.05155,-9.68232,-0.000446,0.003974,0.128208,60.128,1006.0476,0.19198,0.13977,0.46409,0.0,2.0,51.4,15.0,cruise
2.8629,0.44651,0.0151,-9.76342,-0.002312,0.004318,0.132373,60.51,1006.002,0.19151,0.1395,0.46744,0.0,2.0,51.47,15.0,cruise
2.8729,0.39467,0.01755,-9.9969,0.002782,-0.002199,0.129363,60.339,1006.0223,0.18007,0.13995,0.46601,0.0,2.0,51.55,15.0,cruise
2.8829,0.30383,-0.05254,-9.9322,0.005835,-0.000367,0.137851,60.276,1006.0299,0.18384,0.15126,0.46711,0.0,2.0,51.62,15.0,cruise
2.8929,0.37158,0.0387,-9.77092,0.003266,-9.3e-05,0.136281,60.434,1006.0111,0.19286,0.14209,0.46569,0.0,2.0,51.7,15.0,cruise
2.9029,0.51195,-0.04781,-9.69386,0.002828,0.003021,0.133036,60.45,1006.0091,0.17616,0.14032,0.46063,0.0,2.0,51.77,15.0,cruise
2.9129,0.41003,-0.08447,-9.80478,0.002662,0.001319,0.131995,60.386,1006.0168,0.1886,0.14192,0.46453,0.0,2.0,51.85,15.0,cruise
2.9229,0.35108,-0.02465,-9.85677,0.002045,-0.005369,0.13453,60.3,1006.027,0.18327,0.1417,0.46655,0.0,2.0,51.92,15.0,cruise
2.9329,0.37249,-0.12098,-9.93367,0.000126,0.002973,0.135636,60.054,1006.0564,0.19221,0.1501,0.46413,0.0,2.0,52.0,15.0,cruise
2.9429,0.2533,-0.00235,-9.6565,0.005889,-0.004468,0.137721,59.966,1006.0669,0.18339,0.14145,0.47576,0.0,2.0,52.07,15.0,cruise
2.953,0.47139,0.07617,-9.68995,0.003703,-0.000338,0.127447,59.99,1006.064,0.19019,0.14281,0.46357,0.0,2.0,52.15,15.0,cruise
2.963,0.36137,0.01203,-9.7415,-0.003543,0.003784,0.135462,60.25,1006.033,0.1833,0.14568,0.46435,0.0,2.0,52.22,15.0,cruise
2.973,0.33916,-0.12144,-9.9032,-0.002407,-0.00525,0.137375,60.309,1006.0259,0.18558,0.13401,0.46701,0.0,2.0,52.3,15.0,cruise
2.983,0.34994,-0.0412,-9.99447,0.001727,-0.000813,0.136276,60.202,1006.0387,0.17311,0.13926,0.46451,0.0,2.0,52.37,15.0,cruise
2.993,0.41477,-0.13556,-9.73887,0.0054,-0.001897,0.135117,60.054,1006.0564,0.17608,0.1516,0.47051,0.0,2.0,52.45,15.0,cruise
3.003,0.41134,-0.02742,-9.61742,-0.002308,0.001649,0.140596,60.373,1006.0183,0.18068,0.13192,0.46158,0.0,2.0,52.52,15.0,cruise
3.013,0.45064,-0.05647,-9.75226,0.003093,0.002519,0.131838,60.239,1006.0343,0.18399,0.14163,0.46713,0.0,2.0,52.6,15.0,cruise
3.023,0.34428,-0.04506,-9.7911,0.002428,0.001515,0.129213,60.379,1006.0176,0.17979,0.14692,0.47344,0.0,2.0,52.67,15.0,cruise
3.033,0.32864,0.06853,-9.81768,0.004628,0.000368,0.137741,60.084,1006.0528,0.19002,0.14016,0.46718,0.0,2.0,52.75,15.0,cruise
3.043,0.40507,0.06056,-9.77732,-0.000446,-0.001646,0.131869,60.428,1006.0117,0.20012,0.14739,0.46632,0.0,2.0,52.82,15.0,cruise
3.0531,0.34161,0.0121,-9.66889,0.002492,-0.000585,0.131033,60.598,1005.9914,0.17903,0.14487,0.4732,0.0,2.0,52.9,15.0,cruise
3.0631,0.41877,0.05965,-9.70849,0.004244,-0.003933,0.135179,60.436,1006.0108,0.19005,0.1373,0.46546,0.0,2.0,52.97,15.0,cruise
3.0731,0.36559,-0.18644,-9.87088,0.004268,-0.003678,0.131141,60.139,1006.0463,0.17964,0.14335,0.46659,0.0,2.0,53.05,15.0,cruise
3.0831,0.28877,-0.06599,-9.9055,0.006711,-0.003122,0.133472,60.213,1006.0373,0.17907,0.13746,0.46214,0.0,2.0,53.12,15.0,cruise
3.0931,0.31578,0.00715,-9.66943,-0.004286,-0.003601,0.128332,60.26,1006.0317,0.18717,0.14392,0.46976,0.0,2.0,53.2,15.0,cruise
3.1031,0.4793,0.05132,-9.65977,0.00154,-0.004429,0.133697,60.377,1006.0178,0.17472,0.14721,0.46941,0.0,2.0,53.27,15.0,cruise
3.1131,0.40259,0.03867,-9.70233,0.000165,0.000858,0.129819,60.102,1006.0507,0.16535,0.14615,0.46589,0.0,2.0,53.35,15.0,cruise
3.1231,0.34504,-0.15155,-9.9254,0.002497,-0.005027,0.133666,60.216,1006.037,0.18093,0.14965,0.47476,0.0,2.0,53.42,15.0,cruise
3.1331,0.32979,-0.09375,-9.91613,0.003012,-0.005,0.131901,60.242,1006.0339,0.18035,0.1418,0.46074,0.0,2.0,53.5,15.0,cruise
3.1431,0.40128,0.04531,-9.81605,0.0022,0.00132,0.134236,60.237,1006.0345,0.17592,0.14742,0.47124,0.0,2.0,53.57,15.0,cruise
3.1532,0.41147,0.01961,-9.67593,0.00236,-0.000504,0.133031,60.317,1006.025,0.1888,0.14407,0.47641,0.0,2.0,53.65,15.0,cruise
3.1632,0.33975,0.05343,-9.6612,0.000213,0.003066,0.133828,60.168,1006.0427,0.1783,0.15302,0.47462,0.0,2.0,53.72,15.0,cruise
3.1732,0.27311,-0.05941,-9.88107,-0.000407,0.005156,0.133118,60.291,1006.0281,0.18589,0.1457,0.47504,0.0,2.0,53.8,15.0,cruise
3.1832,0.24115,-0.0764,-9.84354,0.005826,-0.004257,0.12974,60.385,1006.0168,0.17659,0.14636,0.47438,0.0,2.0,53.87,15.0,cruise
3.1932,0.34715,-0.1024,-9.79569,0.001156,-0.007534,0.131509,60.091,1006.0519,0.18767,0.15869,0.46471,0.0,2.0,53.95,15.0,cruise
3.2032,0.41989,-0.0196,-9.63776,0.006549,-0.003331,0.131548,60.159,1006.0439,0.18497,0.13172,0.46779,0.0,2.0,54.02,15.0,cruise
3.2132,0.37557,-0.03381,-9.6765,0.00474,-0.006169,0.138679,60.087,1006.0525,0.18545,0.14896,0.46748,0.0,2.0,54.1,15.0,cruise
3.2232,0.30653,-0.05336,-9.87865,-0.001636,-0.002645,0.13008,60.118,1006.0488,0.17468,0.14263,0.4679,0.0,2.0,54.17,15.0,cruise
3.2332,0.34589,-0.04841,-9.79948,-0.005517,-0.000551,0.132413,60.422,1006.0124,0.18212,0.14772,0.47086,0.0,2.0,54.25,15.0,cruise
3.2432,0.33621,0.02543,-9.82848,0.003447,-0.002011,0.130926,60.265,1006.0312,0.17751,0.1552,0.48617,0.0,2.0,54.32,15.0,cruise
3.2533,0.46787,0.00016,-9.59119,0.003139,-0.004714,0.128602,60.291,1006.0281,0.18211,0.14082,0.4664,0.0,2.0,54.4,15.0,cruise
3.2633,0.40731,0.0025,-9.64536,-0.003107,0.005125,0.127774,59.996,1006.0634,0.17754,0.14338,0.46981,0.0,2.0,54.47,15.0,cruise
3.2733,0.32365,-0.06054,-9.92882,0.002422,-0.002887,0.135685,60.273,1006.0302,0.17278,0.14078,0.46914,0.0,2.0,54.55,15.0,cruise
3.2833,0.25986,-0.12224,-9.874,-0.004217,0.002296,0.132842,60.293,1006.0278,0.17219,0.1532,0.46999,0.0,2.0,54.62,15.0,cruise
3.2933,0.33768,0.00385,-9.82245,-0.003785,-0.005289,0.133403,60.3,1006.0271,0.18237,0.14495,0.47287,0.0,2.0,54.7,15.0,cruise
3.3033,0.40096,-0.01856,-9.6036,0.000925,-0.003827,0.132477,60.281,1006.0293,0.17613,0.14765,0.46348,0.0,2.0,54.77,15.0,cruise
3.3133,0.38359,-0.03849,-9.76361,0.000394,0.000269,0.132901,60.22,1006.0365,0.1738,0.15306,0.45802,0.0,2.0,54.85,15.0,cruise
3.3233,0.36832,-0.14352,-9.95496,-0.000416,0.004575,0.13737,60.406,1006.0144,0.17821,0.14074,0.47078,0.0,2.0,54.92,15.0,cruise
3.3333,0.29569,-0.09604,-9.89445,-0.000299,0.000675,0.126539,60.311,1006.0257,0.17179,0.14817,0.47152,0.0,2.0,55.0,15.0,cruise
3.3433,0.31535,0.00117,-9.75245,-0.000865,-0.003322,0.131897,60.185,1006.0408,0.17599,0.14899,0.46694,0.0,2.0,55.08,15.0,cruise
3.3534,0.48631,0.04936,-9.64245,0.001551,-0.004994,0.131055,60.252,1006.0327,0.16948,0.15248,0.46747,0.0,2.0,55.15,15.0,cruise
3.3634,0.36334,-0.02558,-9.56142,-0.000883,-0.008108,0.12757,60.414,1006.0134,0.18216,0.1473,0.47639,0.0,2.0,55.23,15.0,cruise
3.3734,0.36659,-0.05842,-9.89506,0.00165,0.000737,0.133578,60.198,1006.0391,0.17437,0.16078,0.47126,0.0,2.0,55.3,15.0,cruise
3.3834,0.36617,-0.02875,-9.89069,0.001436,0.000796,0.134558,60.34,1006.0223,0.17153,0.15296,0.46966,0.0,2.0,55.38,15.0,cruise
3.3934,0.35482,0.12571,-9.82275,0.003995,-0.004488,0.132795,60.685,1005.981,0.16995,0.14758,0.46991,0.0,2.0,55.45,15.0,cruise
3.4034,0.36444,0.07254,-9.6507,0.003083,-0.005884,0.126968,60.266,1006.0311,0.16669,0.15895,0.46235,0.0,2.0,55.53,15.0,cruise
3.4134,0.33036,0.02419,-9.73538,-0.003449,0.004215,0.129374,60.271,1006.0305,0.17324,0.15508,0.47231,0.0,2.0,55.6,15.0,cruise
3.4234,0.2887,-0.06476,-9.8907,0.003346,-0.005404,0.138431,60.186,1006.0406,0.17401,0.14589,0.46351,0.0,2.0,55.68,15.0,cruise
3.4334,0.27841,-0.10489,-9.92674,-0.001836,0.000176,0.130023,60.166,1006.043,0.17185,0.15682,0.47107,0.0,2.0,55.75,15.0,cruise
3.4434,0.36406,-0.08101,-9.80669,-0.002728,0.002016,0.133957,60.171,1006.0424,0.17075,0.14789,0.46557,0.0,2.0,55.83,15.0,cruise
3.4535,0.42954,0.01385,-9.52061,0.00486,0.002045,0.134379,60.237,1006.0346,0.17633,0.15043,0.47815,0.0,2.0,55.9,15.0,cruise
3.4635,0.40338,0.01797,-9.69653,0.006323,-0.006186,0.137881,60.272,1006.0303,0.16607,0.14858,0.46175,0.0,2.0,55.98,15.0,cruise
3.4735,0.36376,-0.09918,-9.86841,0.004503,-0.003901,0.131547,60.104,1006.0504,0.17092,0.16537,0.47389,0.0,2.0,56.05,15.0,cruise
3.4835,0.30845,-0.08725,-9.91009,0.001481,-0.003144,0.13394,60.157,1006.0441,0.16783,0.15451,0.46416,0.0,2.0,56.13,15.0,cruise
3.4935,0.40453,-0.01114,-9.84483,0.001414,-0.006944,0.13443,60.263,1006.0315,0.18164,0.15818,0.4647,0.0,2.0,56.2,15.0,cruise
3.5035,0.30532,-0.00979,-9.68648,0.006571,-0.00192,0.135154,60.257,1006.0321,0.17124,0.15282,0.47553,0.0,2.0,56.28,15.0,cruise
3.5135,0.39994,-0.04729,-9.61829,0.00021,-0.00325,0.123869,60.395,1006.0156,0.17241,0.15364,0.46799,0.0,2.0,56.35,15.0,cruise
3.5235,0.30325,-0.06522,-9.85078,0.003015,-0.00257,0.135211,60.288,1006.0284,0.16914,0.15429,0.4632,0.0,2.0,56.43,15.0,cruise
3.5335,0.33307,-0.13448,-9.96058,-0.00496,-0.002399,0.137203,60.282,1006.0291,0.17464,0.16522,0.47202,0.0,2.0,56.5,15.0,cruise
3.5435,0.32883,-0.04294,-9.7569,-0.000809,-0.003555,0.135332,60.454,1006.0086,0.16295,0.14953,0.46768,0.0,2.0,56.58,15.0,cruise
3.5536,0.43634,0.08478,-9.4908,-0.000303,-0.003136,0.134141,60.198,1006.0392,0.17024,0.1517,0.45689,0.0,2.0,56.65,15.0,cruise
3.5636,0.39165,-0.00253,-9.63246,0.001109,-0.005675,0.131599,59.986,1006.0645,0.16464,0.15711,0.46876,0.0,2.0,56.73,15.0,cruise
3.5736,0.37901,-0.14428,-9.8833,-0.000335,0.000955,0.134406,60.396,1006.0155,0.17817,0.15225,0.47668,0.0,2.0,56.8,15.0,cruise
3.5836,0.26867,-0.11187,-9.87312,-0.003435,-0.000202,0.132665,60.461,1006.0078,0.16992,0.15453,0.47255,0.0,2.0,56.88,15.0,cruise
3.5936,0.33305,-0.04818,-9.73683,0.000987,-0.003146,0.132108,60.539,1005.9984,0.16776,0.15205,0.46146,0.0,2.0,56.95,15.0,cruise
3.6036,0.40425,0.06013,-9.5848,0.00141,0.000952,0.134551,60.467,1006.0071,0.17466,0.16241,0.46915,0.0,2.0,57.03,15.0,cruise
3.6136,0.32022,0.04068,-9.65365,0.005792,0.001938,0.138193,60.393,1006.0159,0.17064,0.1478,0.47154,0.0,2.0,57.1,15.0,cruise
3.6236,0.3062,-0.03469,-9.86523,0.002489,-0.002215,0.135158,59.892,1006.0758,0.1702,0.16089,0.47935,0.0,2.0,57.18,15.0,cruise
3.6336,0.35719,0.02571,-9.90352,0.00109,-0.000312,0.132344,60.183,1006.041,0.16643,0.14947,0.47264,0.0,2.0,57.25,15.0,cruise
3.6436,0.36556,-0.03221,-9.79265,0.002589,0.00043,0.128967,60.107,1006.0501,0.17354,0.14831,0.47274,0.0,2.0,57.33,15.0,cruise
3.6537,0.48698,0.10794,-9.59065,0.003182,0.004849,0.125364,60.23,1006.0353,0.17276,0.15366,0.4762,0.0,2.0,57.4,15.0,cruise
3.6637,0.38568,0.01511,-9.70308,-0.000507,-0.00355,0.133186,60.184,1006.0409,0.17304,0.15877,0.4755,0.0,2.0,57.48,15.0,cruise
3.6737,0.27859,-0.12906,-9.86508,0.009758,0.001882,0.130728,60.364,1006.0194,0.17167,0.14881,0.47685,0.0,2.0,57.55,15.0,cruise
3.6837,0.31208,-0.06303,-9.91209,0.004492,-0.004174,0.127246,60.348,1006.0212,0.15757,0.1543,0.47593,0.0,2.0,57.63,15.0,cruise
3.6937,0.39291,0.03733,-9.7369,0.008302,-0.003659,0.133561,60.234,1006.0349,0.17233,0.15566,0.47859,0.0,2.0,57.7,15.0,cruise
3.7037,0.3794,0.09738,-9.59892,0.000979,-0.000261,0.133144,60.353,1006.0206,0.16627,0.15261,0.46832,0.0,2.0,57.78,15.0,cruise
3.7137,0.30443,0.0518,-9.74809,0.000429,4.8e-05,0.134873,60.034,1006.0588,0.1666,0.15857,0.47026,0.0,2.0,57.85,15.0,cruise
3.7237,0.40319,-0.08413,-9.96445,0.003524,-0.003498,0.127072,60.276,1006.0298,0.17297,0.15011,0.48168,0.0,2.0,57.93,15.0,cruise
3.7337,0.27824,-0.0544,-9.97547,0.001211,-0.002294,0.127886,60.724,1005.9764,0.1641,0.1541,0.47485,0.0,2.0,58.0,15.0,cruise
3.7437,0.4536,0.04037,-9.83184,0.001718,-0.007534,0.135067,60.055,1006.0563,0.16231,0.15671,0.47223,0.0,2.0,58.08,15.0,cruise
3.7538,0.39244,0.10281,-9.59353,0.003009,-0.005568,0.137457,60.18,1006.0414,0.17477,0.16699,0.47256,0.0,2.0,58.15,15.0,cruise
3.7638,0.44099,-0.14357,-9.6931,0.00438,0.000884,0.12871,60.256,1006.0323,0.15316,0.1591,0.46058,0.0,2.0,58.23,15.0,cruise
3.7738,0.39318,0.01693,-9.88265,0.002629,-0.002537,0.133094,60.128,1006.0476,0.16871,0.14898,0.46085,0.0,2.0,58.3,15.0,cruise
3.7838,0.31352,-0.06965,-9.90202,-0.000894,0.003765,0.132864,60.335,1006.0228,0.16633,0.16235,0.47288,0.0,2.0,58.38,15.0,cruise
3.7938,0.38376,0.01974,-9.86674,-0.004304,-0.00213,0.131793,60.387,1006.0166,0.1652,0.1604,0.46377,0.0,2.0,58.45,15.0,cruise
3.8038,0.40469,-0.04095,-9.61171,-0.004579,-0.000822,0.127981,60.242,1006.0339,0.16933,0.15877,0.46177,0.0,2.0,58.53,15.0,cruise
3.8138,0.35675,-0.06377,-9.76506,0.001405,-0.000172,0.133692,60.39,1006.0162,0.16455,0.15642,0.46463,0.0,2.0,58.6,15.0,cruise
3.8238,0.31573,-0.10749,-9.8981,0.001319,-0.002187,0.141563,60.098,1006.0511,0.16374,0.15082,0.46806,0.0,2.0,58.68,15.0,cruise
3.8338,0.30222,-0.01742,-9.93911,0.000461,-0.003128,0.12818,60.202,1006.0387,0.16221,0.15846,0.47279,0.0,2.0,58.75,15.0,cruise
3.8438,0.3491,-0.03111,-9.86519,0.002658,-0.003933,0.134618,60.497,1006.0034,0.16293,0.15312,0.46992,0.0,2.0,58.83,15.0,cruise
3.8539,0.42241,0.00986,-9.66008,0.002724,-0.000349,0.131351,60.052,1006.0566,0.16591,0.15455,0.47107,0.0,2.0,58.9,15.0,cruise
3.8639,0.39876,-0.08248,-9.67303,0.002588,7.4e-05,0.132729,60.003,1006.0624,0.16976,0.16059,0.46398,0.0,2.0,58.98,15.0,cruise
3.8739,0.29916,-0.02912,-9.81865,-0.000433,0.000645,0.126985,60.144,1006.0457,0.15281,0.1542,0.47754,0.0,2.0,59.05,15.0,cruise
3.8839,0.42183,-0.04854,-9.94932,0.000363,-0.000409,0.127663,60.214,1006.0373,0.17006,0.1536,0.46625,0.0,2.0,59.13,15.0,cruise
3.8939,0.36017,-0.00577,-9.81408,0.001249,-6e-06,0.138241,60.281,1006.0293,0.16243,0.16662,0.46725,0.0,2.0,59.2,15.0,cruise
3.9039,0.33802,0.03724,-9.57954,0.002112,-0.002115,0.128012,60.291,1006.0281,0.16855,0.15296,0.46878,0.0,2.0,59.28,15.0,cruise
3.9139,0.37253,-0.0224,-9.66191,0.002351,-0.000536,0.129422,60.053,1006.0565,0.16345,0.15674,0.47919,0.0,2.0,59.35,15.0,cruise
3.9239,0.43352,0.05951,-9.89636,0.002734,0.000782,0.134606,60.247,1006.0334,0.16829,0.15942,0.47064,0.0,2.0,59.43,15.0,cruise
3.9339,0.24172,-0.02865,-9.93138,0.002412,-0.001114,0.132875,60.293,1006.0278,0.16558,0.15857,0.46272,0.0,2.0,59.5,15.0,cruise
3.9439,0.3865,-0.06176,-9.85285,-0.002063,-0.000946,0.132042,59.98,1006.0652,0.15948,0.16556,0.46774,0.0,2.0,59.58,15.0,cruise
3.954,0.39517,0.07634,-9.59506,0.004072,-0.010109,0.137529,60.395,1006.0156,0.17345,0.15595,0.46118,0.0,2.0,59.65,15.0,cruise
3.964,0.39292,-0.00053,-9.63848,0.004225,-0.002032,0.131616,60.378,1006.0176,0.15962,0.1583,0.47519,0.0,2.0,59.73,15.0,cruise
3.974,0.40325,0.01501,-9.85416,-0.005411,-0.002209,0.130054,60.281,1006.0293,0.15729,0.16005,0.4648,0.0,2.0,59.8,15.0,cruise
3.984,0.25448,0.0002,-9.96749,0.001022,0.001091,0.135074,60.419,1006.0128,0.16191,0.16391,0.47687,0.0,2.0,59.88,15.0,cruise
3.994,0.3783,-0.11402,-9.81678,0.003094,-0.003675,0.137195,60.291,1006.0281,0.16058,0.16606,0.46909,0.0,2.0,59.95,15.0,cruise
4.004,0.41192,-1.96998,-8.37081,20.944092,0.000674,0.132536,60.52,1006.0007,0.15202,0.15213,0.47385,12.0,45.0,60.03,15.0,cruise
4.014,0.43674,-2.03431,-8.30939,0.003253,-0.004241,0.130217,60.328,1006.0236,0.16417,0.1549,0.46901,12.0,45.0,60.11,15.0,cruise
4.024,0.32893,-2.05607,-8.50373,-0.00062,0.001955,0.130731,60.256,1006.0322,0.15144,0.1573,0.47258,12.0,45.0,60.18,15.0,cruise
4.034,0.33406,-2.07005,-8.55293,0.007277,-0.004034,0.127493,60.142,1006.0458,0.15563,0.15614,0.47047,12.0,45.0,60.26,15.0,cruise
4.044,0.41836,-1.9854,-8.42982,0.007444,-0.002861,0.127453,60.458,1006.0081,0.14971,0.15738,0.4726,12.0,45.0,60.33,15.0,cruise
4.0541,0.39728,-2.0253,-8.35827,0.001001,0.001232,0.132415,60.175,1006.0419,0.15241,0.15725,0.47196,12.0,45.0,60.41,15.0,cruise
4.0641,0.41112,-2.06398,-8.43756,0.002311,-0.004476,0.134438,60.187,1006.0406,0.15346,0.16221,0.48179,12.0,45.0,60.48,15.0,cruise
4.0741,0.37948,-2.06915,-8.48247,-0.004197,-0.005118,0.124826,60.559,1005.996,0.16578,0.16355,0.47068,12.0,45.0,60.56,15.0,cruise
4.0841,0.24003,-2.11119,-8.4918,0.001444,-0.00344,0.127089,60.507,1006.0023,0.15755,0.15294,0.46538,12.0,45.0,60.63,15.0,cruise
4.0941,0.29045,-2.06998,-8.44841,-0.000441,0.000578,0.132609,60.459,1006.008,0.15586,0.17709,0.46718,12.0,45.0,60.71,15.0,cruise
4.1041,0.35651,-2.06742,-8.31143,-0.004078,-0.000862,0.126647,60.324,1006.0241,0.15064,0.1601,0.47302,12.0,45.0,60.78,15.0,cruise
4.1141,0.50987,-2.077,-8.3319,-0.001077,-0.004343,0.130224,60.424,1006.0122,0.1547,0.17339,0.47208,12.0,45.0,60.86,15.0,cruise
4.1241,0.29235,-2.09319,-8.53712,0.003497,-0.006648,0.128345,60.211,1006.0376,0.1603,0.16845,0.4769,12.0,45.0,60.93,15.0,cruise
4.1341,0.34401,-2.10436,-8.54237,-0.00233,-0.007265,0.133669,60.149,1006.045,0.15631,0.16303,0.47124,12.0,45.0,61.01,15.0,cruise
4.1441,0.40039,-2.02285,-8.45287,-0.000233,-0.001415,0.130573,60.271,1006.0305,0.16948,0.16348,0.47225,12.0,45.0,61.08,15.0,cruise
4.1542,0.3662,-1.96553,-8.26489,0.003394,-0.001092,0.135469,60.491,1006.0042,0.15755,0.16213,0.47447,12.0,45.0,61.16,15.0,cruise
4.1642,0.35054,-2.05829,-8.3245,-0.004138,0.000761,0.129475,60.229,1006.0355,0.15481,0.16304,0.46828,12.0,45.0,61.23,15.0,cruise
4.1742,0.34098,-2.07701,-8.51599,-0.001238,0.001527,0.126032,60.269,1006.0307,0.15328,0.16508,0.46273,12.0,45.0,61.31,15.0,cruise
4.1842,0.29264,-2.10585,-8.52888,0.00207,-0.005258,0.130866,60.433,1006.0111,0.14937,0.16273,0.46995,12.0,45.0,61.38,15.0,cruise
4.1942,0.33317,-1.93094,-8.48697,0.002434,-0.003991,0.133908,60.431,1006.0114,0.15218,0.16299,0.46552,12.0,45.0,61.46,15.0,cruise
4.2042,0.34384,-1.96538,-8.33228,-0.006153,0.003615,0.129914,60.263,1006.0314,0.16307,0.16269,0.46918,12.0,45.0,61.53,15.0,cruise
4.2142,0.33522,-2.10335,-8.32753,0.002185,-0.000771,0.130871,60.303,1006.0266,0.14543,0.16584,0.47081,12.0,45.0,61.61,15.0,cruise
4.2242,0.44397,-2.07243,-8.53714,0.000936,-0.002668,0.133631,60.304,1006.0265,0.14806,0.15549,0.47131,12.0,45.0,61.68,15.0,cruise
4.2342,0.38672,-2.09646,-8.5418,0.004125,-0.000897,0.129872,60.329,1006.0235,0.16014,0.16646,0.47374,12.0,45.0,61.76,15.0,cruise
4.2442,0.32822,-2.07669,-8.47572,0.000937,0.001825,0.125278,60.305,1006.0265,0.15346,0.15709,0.47336,12.0,45.0,61.83,15.0,cruise
4.2543,0.36414,-2.03547,-8.21383,0.004117,5.3e-05,0.13346,60.275,1006.03,0.1636,0.16809,0.46625,12.0,45.0,61.91,15.0,cruise
4.2643,0.32733,-1.99237,-8.31916,-0.003204,-0.000395,0.131524,60.38,1006.0175,0.15555,0.16117,0.47316,12.0,45.0,61.98,15.0,cruise
4.2743,0.32129,-2.09349,-8.51267,0.004451,-0.002514,0.136444,60.568,1005.9951,0.1494,0.14975,0.47522,12.0,45.0,62.06,15.0,cruise
4.2843,0.30019,-2.14402,-8.61196,-0.000191,0.002236,0.132799,60.493,1006.004,0.15531,0.16294,0.46805,12.0,45.0,62.13,15.0,cruise
4.2943,0.37816,-2.0267,-8.42328,0.000262,-0.001131,0.134076,60.242,1006.0339,0.14691,0.16059,0.46879,12.0,45.0,62.21,15.0,cruise
4.3043,0.43269,-1.95533,-8.37603,-0.00075,-0.002746,0.134699,60.221,1006.0365,0.15018,0.1577,0.47242,12.0,45.0,62.28,15.0,cruise
4.3143,0.38956,-2.0527,-8.32692,0.004436,-0.004687,0.129795,60.488,1006.0046,0.15245,0.16824,0.47201,12.0,45.0,62.36,15.0,cruise
4.3243,0.34513,-2.08805,-8.44106,0.00454,0.001574,0.12878,60.496,1006.0036,0.15003,0.16125,0.46915,12.0,45.0,62.43,15.0,cruise
4.3343,0.35836,-2.07361,-8.59561,0.003564,-0.001263,0.130628,60.194,1006.0397,0.15361,0.16474,0.46312,12.0,45.0,62.51,15.0,cruise
4.3443,0.39096,-2.09282,-8.39744,-0.003166,-0.002231,0.130248,60.154,1006.0445,0.14887,0.17414,0.47072,12.0,45.0,62.58,15.0,cruise
4.3544,0.3587,-2.11042,-8.39658,-0.000566,-0.003587,0.131696,59.959,1006.0677,0.15059,0.17056,0.47811,12.0,45.0,62.66,15.0,cruise
4.3644,0.30287,-2.05951,-8.35473,0.001484,-0.005369,0.137418,60.307,1006.0262,0.15018,0.17352,0.46992,12.0,45.0,62.73,15.0,cruise
4.3744,0.3675,-2.10723,-8.54778,-0.000784,0.004851,0.134273,60.341,1006.0221,0.14565,0.17024,0.46321,12.0,45.0,62.81,15.0,cruise
4.3844,0.23811,-2.12853,-8.48515,0.006741,-0.003064,0.130358,60.054,1006.0564,0.15067,0.16663,0.47395,12.0,45.0,62.88,15.0,cruise
4.3944,0.39271,-2.07993,-8.45269,-0.00106,-0.000108,0.130889,60.369,1006.0188,0.15191,0.16629,0.47397,12.0,45.0,62.96,15.0,cruise
4.4044,0.31891,-2.07302,-8.32622,-0.003296,-0.002939,0.131272,60.496,1006.0035,0.15048,0.17123,0.47151,12.0,45.0,63.03,15.0,cruise
4.4144,0.37141,-2.01216,-8.27311,0.004616,-0.002125,0.127449,60.042,1006.0578,0.14788,0.15452,0.47898,12.0,45.0,63.11,15.0,cruise
4.4244,0.37831,-2.10055,-8.53095,0.00413,-0.005064,0.129342,60.185,1006.0407,0.14982,0.16944,0.47596,12.0,45.0,63.18,15.0,cruise
4.4344,0.36864,-2.10105,-8.53169,-0.000985,-0.007167,0.130371,60.179,1006.0415,0.14583,0.16167,0.46769,12.0,45.0,63.26,15.0,cruise
4.4444,0.37707,-1.98571,-8.57031,-0.00282,-0.004069,0.134688,60.269,1006.0307,0.14512,0.17018,0.47478,12.0,45.0,63.33,15.0,cruise
4.4545,0.39603,-2.06153,-8.30142,0.000335,-0.002416,0.130849,60.439,1006.0104,0.14973,0.17191,0.47668,12.0,45.0,63.41,15.0,cruise
4.4645,0.42242,-2.04383,-8.25554,0.002432,0.006115,0.133296,60.405,1006.0145,0.14967,0.16636,0.46871,12.0,45.0,63.48,15.0,cruise
4.4745,0.36492,-2.04171,-8.41425,0.001973,-0.003085,0.13138,60.102,1006.0507,0.15627,0.16428,0.47484,12.0,45.0,63.56,15.0,cruise
4.4845,0.33075,-2.08553,-8.58842,-0.001323,-0.004598,0.137537,60.317,1006.025,0.15333,0.17404,0.46795,12.0,45.0,63.63,15.0,cruise
4.4945,0.36651,-2.06989,-8.54548,0.000462,7.4e-05,0.13086,60.251,1006.0328,0.14658,0.1778,0.46083,12.0,45.0,63.71,15.0,cruise
4.5045,0.42145,-2.0337,-8.34959,0.000183,0.000302,0.134531,60.328,1006.0237,0.15265,0.17371,0.47408,12.0,45.0,63.78,15.0,cruise
4.5145,0.37265,-1.99255,-8.28067,-0.001445,-0.006419,0.126282,60.31,1006.0258,0.14842,0.16159,0.47523,12.0,45.0,63.86,15.0,cruise
4.5245,0.35871,-1.99868,-8.44989,-0.002189,-0.000339,0.134356,60.218,1006.0368,0.13946,0.16812,0.465,12.0,45.0,63.93,15.0,cruise
4.5345,0.37292,-2.12075,-8.4961,-0.005343,-0.001306,0.136637,60.166,1006.043,0.14561,0.16573,0.46658,12.0,45.0,64.01,15.0,cruise
4.5445,0.35629,-2.13772,-8.49673,0.002574,-0.002362,0.129327,60.455,1006.0086,0.1498,0.16267,0.46353,12.0,45.0,64.08,15.0,cruise
4.5546,0.34787,-1.99442,-8.30603,0.003406,-0.002691,0.129551,60.438,1006.0105,0.14312,0.16893,0.46225,12.0,45.0,64.16,15.0,cruise
4.5646,0.37198,-1.96624,-8.3395,0.003478,-0.008698,0.130632,60.274,1006.0301,0.15435,0.16228,0.47335,12.0,45.0,64.23,15.0,cruise
4.5746,0.4051,-2.10105,-8.48354,0.001453,-0.006161,0.130962,60.491,1006.0041,0.14799,0.16747,0.47057,12.0,45.0,64.31,15.0,cruise
4.5846,0.34609,-2.06152,-8.60997,0.005641,0.002211,0.134344,60.174,1006.0421,0.14001,0.16674,0.4703,12.0,45.0,64.38,15.0,cruise
4.5946,0.25486,-2.04916,-8.43024,0.002765,-0.003771,0.129916,60.345,1006.0216,0.14409,0.17072,0.47301,12.0,45.0,64.46,15.0,cruise
4.6046,0.44965,-2.07913,-8.31139,-3.5e-05,-0.002036,0.134897,60.446,1006.0096,0.15158,0.17075,0.46945,12.0,45.0,64.53,15.0,cruise
4.6146,0.3886,-2.10324,-8.2348,8.3e-05,-0.000215,0.134337,60.113,1006.0493,0.13972,0.17648,0.47145,12.0,45.0,64.61,15.0,cruise
4.6246,0.32458,-2.07069,-8.40664,0.003848,-0.006125,0.137187,60.445,1006.0097,0.14331,0.16291,0.47527,12.0,45.0,64.68,15.0,cruise
4.6346,0.34116,-2.1735,-8.593,0.01044,-0.001675,0.130071,60.149,1006.0451,0.15267,0.17323,0.47704,12.0,45.0,64.76,15.0,cruise
4.6446,0.35475,-2.01281,-8.54048,0.001538,-0.000873,0.136433,60.348,1006.0213,0.14042,0.16944,0.46162,12.0,45.0,64.83,15.0,cruise
4.6547,0.27838,-1.98198,-8.34381,0.000269,0.00076,0.136472,60.38,1006.0174,0.15293,0.17175,0.47151,12.0,45.0,64.91,15.0,cruise
4.6647,0.41402,-2.08045,-8.2521,-0.006293,-0.003505,0.132349,60.182,1006.0412,0.14077,0.17856,0.47552,12.0,45.0,64.98,15.0,cruise
4.6747,0.3205,-2.08686,-8.52108,0.003153,-0.002502,0.126396,60.315,1006.0252,0.14496,0.1743,0.46963,12.0,45.0,65.06,15.0,cruise
4.6847,0.29897,-2.00112,-8.58064,0.003196,-0.003359,0.13436,60.082,1006.0531,0.1402,0.16357,0.46698,12.0,45.0,65.14,15.0,cruise
4.6947,0.40407,-2.10717,-8.4654,0.005592,-0.001823,0.135255,60.38,1006.0175,0.14283,0.17348,0.4792,12.0,45.0,65.21,15.0,cruise
4.7047,0.36176,-2.07218,-8.37864,0.004038,0.001646,0.13067,59.98,1006.0653,0.13861,0.17259,0.46967,12.0,45.0,65.29,15.0,cruise
4.7147,0.41159,-2.04142,-8.2477,0.002076,1.6e-05,0.132749,60.379,1006.0176,0.14401,0.16533,0.47187,12.0,45.0,65.36,15.0,cruise
4.7247,0.3958,-2.00397,-8.43276,-0.001837,-0.004174,0.13097,60.328,1006.0236,0.14085,0.16447,0.46435,12.0,45.0,65.44,15.0,cruise
4.7347,0.21324,-2.25579,-8.58704,0.008033,0.003662,0.129349,60.322,1006.0243,0.13387,0.16365,0.46401,12.0,45.0,65.51,15.0,cruise
4.7447,0.32962,-2.0861,-8.49216,0.003048,-0.002746,0.132382,60.136,1006.0466,0.13421,0.16283,0.47325,12.0,45.0,65.59,15.0,cruise
4.7548,0.37621,-2.11815,-8.33352,-0.002681,0.003247,0.130523,60.402,1006.0148,0.14612,0.16567,0.47038,12.0,45.0,65.66,15.0,cruise
4.7648,0.43097,-2.00861,-8.27856,-0.002925,-8.7e-05,0.1308,60.352,1006.0207,0.14501,0.17391,0.47174,12.0,45.0,65.74,15.0,cruise
4.7748,0.38937,-2.026,-8.37515,0.000945,-0.001252,0.135059,60.226,1006.0358,0.13347,0.17315,0.46897,12.0,45.0,65.81,15.0,cruise
4.7848,0.25795,-2.07436,-8.50829,-0.003823,0.001332,0.124647,60.24,1006.0342,0.14908,0.16916,0.47045,12.0,45.0,65.89,15.0,cruise
4.7948,0.37766,-2.16385,-8.50451,0.001267,0.003838,0.128542,60.243,1006.0338,0.13498,0.16575,0.47564,12.0,45.0,65.96,15.0,cruise
4.8048,0.39323,-2.05332,-8.35931,-0.000612,-0.003192,0.128455,60.261,1006.0316,0.13756,0.16725,0.47078,12.0,45.0,66.04,15.0,cruise
4.8148,0.41547,-2.04196,-8.30249,0.007544,0.004592,0.129075,60.163,1006.0434,0.1338,0.17644,0.46801,12.0,45.0,66.11,15.0,cruise
4.8248,0.37041,-1.9594,-8.44676,0.003191,-0.000208,0.130487,60.459,1006.008,0.13458,0.17797,0.46706,12.0,45.0,66.19,15.0,cruise
4.8348,0.29463,-2.15355,-8.62522,-0.000208,-0.009071,0.131549,60.224,1006.0361,0.14251,0.1735,0.46646,12.0,45.0,66.26,15.0,cruise
4.8448,0.31586,-2.09063,-8.437,-0.001408,-0.003932,0.128869,60.078,1006.0536,0.13984,0.17252,0.47641,12.0,45.0,66.34,15.0,cruise
4.8549,0.44341,-1.90625,-8.33976,0.000302,-0.00568,0.134342,60.318,1006.0249,0.14129,0.16592,0.47176,12.0,45.0,66.41,15.0,cruise
4.8649,0.4145,-2.00639,-8.32773,0.004645,0.004374,0.128925,60.408,1006.0141,0.12338,0.17508,0.46065,12.0,45.0,66.49,15.0,cruise
4.8749,0.33334,-2.12367,-8.45291,0.003593,-0.007338,0.131172,60.223,1006.0362,0.14541,0.17401,0.46411,12.0,45.0,66.56,15.0,cruise
4.8849,0.29542,-2.02091,-8.54221,-0.001668,-0.002562,0.131545,60.219,1006.0366,0.12869,0.16857,0.47695,12.0,45.0,66.64,15.0,cruise
4.8949,0.31883,-2.08498,-8.50762,0.007738,-0.00171,0.135524,60.21,1006.0377,0.13568,0.17214,0.46613,12.0,45.0,66.71,15.0,cruise
4.9049,0.38036,-1.98265,-8.37916,0.001087,0.000382,0.129786,60.464,1006.0074,0.13708,0.17136,0.45996,12.0,45.0,66.79,15.0,cruise
4.9149,0.38564,-1.99449,-8.20521,0.002799,0.001628,0.128637,60.281,1006.0293,0.14255,0.16786,0.47483,12.0,45.0,66.86,15.0,cruise
4.9249,0.39734,-2.04334,-8.45516,-0.001861,0.00357,0.134168,60.351,1006.0209,0.13412,0.17261,0.47082,12.0,45.0,66.94,15.0,cruise
4.9349,0.33931,-2.06184,-8.61623,-0.003298,-0.001501,0.12703,60.251,1006.0328,0.13337,0.17499,0.47991,12.0,45.0,67.01,15.0,cruise
4.9449,0.23989,-1.96702,-8.52936,0.00215,-0.005996,0.135263,60.306,1006.0263,0.13535,0.16295,0.47037,12.0,45.0,67.09,15.0,cruise
4.955,0.43203,-2.03976,-8.28346,0.004499,-0.003658,0.137047,60.307,1006.0262,0.13564,0.17325,0.47035,12.0,45.0,67.16,15.0,cruise
4.965,0.27354,-2.02192,-8.3595,0.005983,0.00302,0.134835,60.264,1006.0313,0.13008,0.16958,0.47971,12.0,45.0,67.24,15.0,cruise
4.975,0.32733,-2.1736,-8.38361,0.005597,0.003232,0.135385,60.48,1006.0055,0.13512,0.1626,0.47014,12.0,45.0,67.31,15.0,cruise
4.985,0.35064,-2.10503,-8.58525,-0.001794,-0.004764,0.13778,60.581,1005.9934,0.13458,0.1745,0.4651,12.0,45.0,67.39,15.0,cruise
4.995,0.36812,-1.99367,-8.59764,0.002469,-0.00014,0.133843,60.546,1005.9976,0.1445,0.17203,0.47337,12.0,45.0,67.46,15.0,cruise
5.005,0.39287,-2.0606,-8.33178,0.003076,-0.001095,0.129603,60.23,1006.0353,0.13178,0.1691,0.47157,12.0,45.0,67.54,15.0,cruise
5.015,0.42614,-1.9635,-8.33301,-0.000662,0.002911,0.13177,60.305,1006.0265,0.13292,0.17908,0.47586,12.0,45.0,67.61,15.0,cruise
5.025,0.41834,-2.05349,-8.47467,0.006853,0.000806,0.130884,60.514,1006.0015,0.13085,0.18058,0.47739,12.0,45.0,67.69,15.0,cruise
5.035,0.27351,-2.06883,-8.53559,0.008928,-0.003993,0.13655,60.303,1006.0267,0.12705,0.17304,0.47001,12.0,45.0,67.76,15.0,cruise
5.045,0.28201,-2.06724,-8.47605,0.001811,-0.003399,0.131808,60.299,1006.0271,0.13408,0.1793,0.47136,12.0,45.0,67.84,15.0,cruise
5.0551,0.31754,-2.05833,-8.33984,0.004478,0.002129,0.137576,60.32,1006.0247,0.13654,0.16658,0.47215,12.0,45.0,67.91,15.0,cruise
5.0651,0.35168,-2.01574,-8.13746,0.002014,-0.004374,0.133464,60.222,1006.0363,0.12765,0.18448,0.47533,12.0,45.0,67.99,15.0,cruise
5.0751,0.38091,-2.07376,-8.44295,0.005734,-0.000864,0.122993,60.663,1005.9836,0.1331,0.17579,0.47543,12.0,45.0,68.06,15.0,cruise
5.0851,0.343,-2.06058,-8.59468,-0.002573,-0.000955,0.136534,60.203,1006.0386,0.12828,0.18028,0.46771,12.0,45.0,68.14,15.0,cruise
5.0951,0.31319,-2.10279,-8.53,-0.003603,-0.003421,0.132945,60.333,1006.023,0.13744,0.18348,0.47756,12.0,45.0,68.21,15.0,cruise
5.1051,0.43215,-2.03888,-8.3823,0.001181,-4.3e-05,0.134737,60.393,1006.0158,0.13078,0.17833,0.4763,12.0,45.0,68.29,15.0,cruise
5.1151,0.44935,-2.01381,-8.32947,-0.00146,-0.003844,0.133046,60.378,1006.0177,0.12405,0.17198,0.47122,12.0,45.0,68.36,15.0,cruise
5.1251,0.31973,-2.03138,-8.43892,-0.001067,-0.001637,0.133441,60.173,1006.0422,0.12964,0.17694,0.46619,12.0,45.0,68.44,15.0,cruise
5.1351,0.2374,-2.17452,-8.59298,-0.002845,-0.002829,0.137262,60.093,1006.0517,0.12917,0.18537,0.47204,12.0,45.0,68.51,15.0,cruise
5.1451,0.31464,-2.09282,-8.50807,0.006179,-0.003388,0.13,60.093,1006.0517,0.13083,0.16779,0.46768,12.0,45.0,68.59,15.0,cruise
5.1552,0.34014,-1.97888,-8.37981,0.002283,-0.006635,0.132679,60.12,1006.0486,0.12792,0.18598,0.47466,12.0,45.0,68.66,15.0,cruise
5.1652,0.39948,-1.85233,-8.33274,0.004589,-0.006429,0.131563,60.098,1006.0512,0.13106,0.17531,0.46846,12.0,45.0,68.74,15.0,cruise
5.1752,0.42058,-2.08054,-8.40349,0.003548,-0.006288,0.130053,60.308,1006.026,0.13266,0.18224,0.46892,12.0,45.0,68.81,15.0,cruise
5.1852,0.30474,-2.14115,-8.55433,0.000213,-0.002644,0.13202,60.383,1006.0171,0.12642,0.17137,0.47216,12.0,45.0,68.89,15.0,cruise
5.1952,0.18079,-2.1162,-8.59031,0.004719,-0.003137,0.130607,60.293,1006.0279,0.12599,0.17332,0.47049,12.0,45.0,68.96,15.0,cruise
5.2052,0.36338,-2.05501,-8.4085,-0.002346,-0.001639,0.133213,60.086,1006.0526,0.1325,0.17926,0.47487,12.0,45.0,69.04,15.0,cruise
5.2152,0.42085,-1.9803,-8.17718,0.000209,-0.004953,0.127692,60.563,1005.9956,0.13728,0.17092,0.46636,12.0,45.0,69.11,15.0,cruise
5.2252,0.35058,-1.98989,-8.48061,-0.004818,0.004688,0.133237,60.368,1006.0189,0.12714,0.17798,0.46243,12.0,45.0,69.19,15.0,cruise
5.2352,0.27863,-2.09178,-8.68295,0.000179,-0.002908,0.131409,60.217,1006.0369,0.12291,0.16664,0.47072,12.0,45.0,69.26,15.0,cruise
5.2452,0.31584,-2.15568,-8.53265,0.000205,-0.003194,0.125857,60.402,1006.0148,0.12146,0.17617,0.46596,12.0,45.0,69.34,15.0,cruise
5.2553,0.36358,-1.97699,-8.33476,0.004484,-0.000829,0.133491,60.033,1006.0589,0.12577,0.17483,0.47612,12.0,45.0,69.41,15.0,cruise
5.2653,0.38018,-1.99864,-8.27429,0.004562,-0.002214,0.134783,60.044,1006.0576,0.11901,0.16464,0.47393,12.0,45.0,69.49,15.0,cruise
5.2753,0.4011,-2.00504,-8.44638,-0.000594,-0.002174,0.136643,60.554,1005.9967,0.13078,0.17781,0.47668,12.0,45.0,69.56,15.0,cruise
5.2853,0.30803,-2.11617,-8.57446,-0.001842,-0.002331,0.128965,60.454,1006.0086,0.12926,0.1834,0.46185,12.0,45.0,69.64,15.0,cruise
5.2953,0.42483,-2.16652,-8.59854,-0.000754,0.0021,0.132989,60.263,1006.0314,0.12231,0.16948,0.47566,12.0,45.0,69.71,15.0,cruise
5.3053,0.42166,-1.9683,-8.34508,-0.006809,-0.005542,0.13371,60.245,1006.0336,0.12321,0.17094,0.47474,12.0,45.0,69.79,15.0,cruise
5.3153,0.42834,-1.98694,-8.31695,0.001643,-0.005814,0.131934,59.921,1006.0723,0.11789,0.17494,0.48188,12.0,45.0,69.86,15.0,cruise
5.3253,0.2784,-2.11129,-8.39804,0.006419,-0.00119,0.134442,60.249,1006.0331,0.12291,0.17706,0.46671,12.0,45.0,69.94,15.0,cruise
5.3353,0.35736,-2.17661,-8.52155,0.001248,-0.002434,0.127407,60.153,1006.0446,0.13118,0.17571,0.47139,12.0,45.0,70.02,15.0,cruise
5.3453,0.28481,-2.09037,-8.60963,0.001429,-0.000672,0.133297,60.164,1006.0432,0.12321,0.17954,0.46894,12.0,45.0,70.09,15.0,cruise
5.3554,0.36646,-1.94179,-8.41554,0.004372,-0.005259,0.134312,60.406,1006.0143,0.1221,0.17086,0.46015,12.0,45.0,70.17,15.0,cruise
5.3654,0.3751,-1.98564,-8.33832,0.001411,-0.006228,0.131647,60.128,1006.0476,0.12399,0.17454,0.46405,12.0,45.0,70.24,15.0,cruise
5.3754,0.33671,-2.09484,-8.47072,0.004388,-0.002884,0.125735,60.207,1006.0382,0.12868,0.17334,0.47749,12.0,45.0,70.32,15.0,cruise
5.3854,0.279,-2.07067,-8.5121,0.002485,-0.00591,0.129487,60.476,1006.006,0.11981,0.18212,0.46785,12.0,45.0,70.39,15.0,cruise
5.3954,0.33493,-2.15891,-8.57375,-0.001502,-0.001082,0.132599,60.369,1006.0187,0.12111,0.17269,0.47091,12.0,45.0,70.47,15.0,cruise
5.4054,0.32809,-1.98402,-8.37681,0.000135,-0.000373,0.132091,60.051,1006.0567,0.11798,0.18272,0.47042,12.0,45.0,70.54,15.0,cruise
5.4154,0.32182,-1.99411,-8.31155,-0.001502,-0.005176,0.135324,60.005,1006.0622,0.11883,0.17813,0.47789,12.0,45.0,70.62,15.0,cruise
5.4254,0.39815,-2.08905,-8.32442,-0.002949,-0.000937,0.133781,60.168,1006.0428,0.12623,0.17505,0.47348,12.0,45.0,70.69,15.0,cruise
5.4354,0.23028,-2.07843,-8.5826,0.004555,-0.001883,0.136049,60.376,1006.0179,0.12184,0.18166,0.47397,12.0,45.0,70.77,15.0,cruise
5.4454,0.35076,-2.20492,-8.59481,0.005249,-0.005531,0.134952,60.406,1006.0144,0.11857,0.16784,0.46716,12.0,45.0,70.84,15.0,cruise
5.4555,0.48254,-2.08227,-8.41406,-0.001908,0.00185,0.131566,60.206,1006.0382,0.129,0.18081,0.4654,12.0,45.0,70.92,15.0,cruise
5.4655,0.34482,-1.95386,-8.28246,-0.003567,-0.00715,0.128962,60.114,1006.0492,0.11143,0.17251,0.4654,12.0,45.0,70.99,15.0,cruise
5.4755,0.34871,-1.96157,-8.41059,0.000571,-0.000264,0.131598,60.36,1006.0198,0.12279,0.17871,0.48383,12.0,45.0,71.07,15.0,cruise
5.4855,0.36843,-2.14912,-8.54149,-0.001302,-0.000461,0.128183,60.134,1006.0469,0.12283,0.18318,0.47251,12.0,45.0,71.14,15.0,cruise
5.4955,0.36926,-2.07279,-8.53957,-0.000445,0.000641,0.135381,60.291,1006.0281,0.12025,0.18624,0.4699,12.0,45.0,71.22,15.0,cruise
5.5055,0.38135,-2.01609,-8.38284,-0.001405,-0.000654,0.132195,60.576,1005.994,0.12451,0.1754,0.47365,12.0,45.0,71.29,15.0,cruise
5.5155,0.4214,-1.94637,-8.30939,0.001618,-0.002084,0.132485,60.167,1006.0429,0.12317,0.18056,0.47643,12.0,45.0,71.37,15.0,cruise
5.5255,0.37236,-2.06579,-8.35424,-0.001339,0.001469,0.135552,60.489,1006.0045,0.1219,0.17613,0.47055,12.0,45.0,71.44,15.0,cruise
5.5355,0.34257,-2.12228,-8.49151,0.002774,-0.004479,0.137949,60.315,1006.0253,0.11428,0.1745,0.47744,12.0,45.0,71.52,15.0,cruise
5.5455,0.41704,-2.04138,-8.48463,0.004689,-0.000138,0.133313,60.381,1006.0173,0.12315,0.17503,0.47366,12.0,45.0,71.59,15.0,cruise
5.5556,0.44937,-2.05144,-8.39722,0.002478,-0.003745,0.128383,60.472,1006.0064,0.11695,0.17893,0.46695,12.0,45.0,71.67,15.0,cruise
5.5656,0.46989,-1.96894,-8.29497,-0.002473,-0.002845,0.134018,60.328,1006.0236,0.11947,0.17998,0.47379,12.0,45.0,71.74,15.0,cruise
5.5756,0.37166,-2.02123,-8.43937,0.008724,-0.00265,0.13292,60.385,1006.0169,0.1166,0.17905,0.46998,12.0,45.0,71.82,15.0,cruise
5.5856,0.27827,-2.07172,-8.63826,0.006323,0.000594,0.13423,60.04,1006.0581,0.11442,0.18605,0.49076,12.0,45.0,71.89,15.0,cruise
5.5956,0.38465,-2.04096,-8.52654,-0.001469,0.001191,0.128999,60.118,1006.0487,0.11174,0.18407,0.46971,12.0,45.0,71.97,15.0,cruise
5.6056,0.38014,-2.04335,-8.44135,-0.000923,-0.003655,0.12808,60.224,1006.036,0.11242,0.18217,0.4733,12.0,45.0,72.04,15.0,cruise
5.6156,0.34122,-2.0268,-8.18994,-0.001859,-0.00052,0.132605,60.464,1006.0074,0.11903,0.17721,0.47033,12.0,45.0,72.12,15.0,cruise
5.6256,0.37883,-2.04761,-8.45231,0.004799,0.001384,0.129154,60.255,1006.0324,0.11616,0.17368,0.46067,12.0,45.0,72.19,15.0,cruise
5.6356,0.29114,-2.11108,-8.62585,0.001595,0.001685,0.134816,60.281,1006.0293,0.1078,0.18313,0.47073,12.0,45.0,72.27,15.0,cruise
5.6456,0.34533,-1.99692,-8.59654,-0.007558,-0.004972,0.133747,60.304,1006.0265,0.11065,0.17254,0.46823,12.0,45.0,72.34,15.0,cruise
5.6557,0.31178,-2.01782,-8.40922,-0.000811,-0.004079,0.133077,60.306,1006.0262,0.11747,0.18062,0.46964,12.0,45.0,72.42,15.0,cruise
5.6657,0.354,-2.0486,-8.30268,0.007277,-0.005851,0.131039,60.315,1006.0252,0.11467,0.18518,0.46846,12.0,45.0,72.49,15.0,cruise
5.6757,0.36388,-2.00134,-8.29264,0.005299,-0.002232,0.13215,60.307,1006.0262,0.11664,0.17566,0.47468,12.0,45.0,72.57,15.0,cruise
5.6857,0.33538,-2.09469,-8.61535,0.001271,-0.007496,0.130558,60.216,1006.0371,0.11707,0.18938,0.47286,12.0,45.0,72.64,15.0,cruise
5.6957,0.39576,-2.06183,-8.50136,0.006652,-0.00402,0.129917,60.4,1006.015,0.11534,0.18117,0.46876,12.0,45.0,72.72,15.0,cruise
5.7057,0.34295,-1.9638,-8.44761,0.003144,-0.000258,0.127582,60.175,1006.0419,0.11177,0.18298,0.46816,12.0,45.0,72.79,15.0,cruise
5.7157,0.40127,-2.08503,-8.16699,0.001289,-0.000339,0.130714,60.202,1006.0387,0.12437,0.17065,0.47139,12.0,45.0,72.87,15.0,cruise
5.7257,0.31601,-2.06135,-8.41146,-0.001874,-0.001733,0.124634,60.253,1006.0327,0.11408,0.17353,0.47757,12.0,45.0,72.94,15.0,cruise
5.7357,0.2958,-2.1038,-8.57908,0.000841,0.002057,0.139748,60.412,1006.0136,0.1197,0.18899,0.47124,12.0,45.0,73.02,15.0,cruise
5.7457,0.4009,-2.05517,-8.55237,0.002136,-0.007335,0.133208,60.068,1006.0547,0.10585,0.18146,0.46443,12.0,45.0,73.09,15.0,cruise
5.7558,0.37105,-2.03896,-8.38711,-0.001616,0.000822,0.132053,60.366,1006.0191,0.10772,0.17968,0.47549,12.0,45.0,73.17,15.0,cruise
5.7658,0.45375,-2.05192,-8.31081,-0.001866,-0.003846,0.128122,60.279,1006.0295,0.11659,0.17673,0.46955,12.0,45.0,73.24,15.0,cruise
5.7758,0.36643,-1.9871,-8.40686,-0.000629,-0.004393,0.128885,60.379,1006.0175,0.11248,0.18102,0.47637,12.0,45.0,73.32,15.0,cruise
5.7858,0.39275,-2.17334,-8.51489,0.00177,-0.00324,0.133272,60.041,1006.0579,0.12019,0.1834,0.46567,12.0,45.0,73.39,15.0,cruise
5.7958,0.29247,-2.18065,-8.57759,-0.000346,-0.005822,0.134619,60.492,1006.0041,0.11246,0.17938,0.47217,12.0,45.0,73.47,15.0,cruise
5.8058,0.36922,-2.10095,-8.4328,0.00021,-0.001103,0.132316,60.332,1006.0232,0.1047,0.18431,0.47002,12.0,45.0,73.54,15.0,cruise
5.8158,0.53254,-2.03133,-8.26797,0.009586,-0.001267,0.132087,60.152,1006.0447,0.11969,0.17527,0.47214,12.0,45.0,73.62,15.0,cruise
5.8258,0.35452,-2.04803,-8.44421,0.005136,-0.002695,0.128635,60.488,1006.0046,0.10925,0.18282,0.47421,12.0,45.0,73.69,15.0,cruise
5.8358,0.35044,-2.20002,-8.51014,0.000787,-0.00284,0.131955,60.058,1006.0559,0.11245,0.17441,0.46857,12.0,45.0,73.77,15.0,cruise
5.8458,0.32878,-2.04225,-8.60481,0.005448,0.000973,0.131012,60.134,1006.0469,0.104,0.18267,0.46631,12.0,45.0,73.84,15.0,cruise
5.8559,0.42896,-2.08179,-8.44874,0.001788,-0.003924,0.132334,60.448,1006.0093,0.11153,0.182,0.47103,12.0,45.0,73.92,15.0,cruise
5.8659,0.32005,-1.9924,-8.27645,0.003756,-5.4e-05,0.131705,60.455,1006.0085,0.1092,0.18271,0.46844,12.0,45.0,73.99,15.0,cruise
5.8759,0.40222,-2.05637,-8.28715,0.007158,0.000754,0.136951,60.069,1006.0546,0.10328,0.17994,0.47021,12.0,45.0,74.07,15.0,cruise
5.8859,0.31731,-2.17148,-8.48478,0.007581,0.001978,0.135573,60.334,1006.023,0.10589,0.18199,0.48053,12.0,45.0,74.14,15.0,cruise
5.8959,0.30268,-2.11924,-8.51012,0.00465,-0.004423,0.131548,60.225,1006.036,0.11018,0.18723,0.46598,12.0,45.0,74.22,15.0,cruise
5.9059,0.42212,-2.044,-8.2913,0.002087,-0.002197,0.134053,60.249,1006.033,0.10058,0.18058,0.46872,12.0,45.0,74.29,15.0,cruise
5.9159,0.32496,-2.01585,-8.38835,9.4e-05,-0.001178,0.132627,60.238,1006.0344,0.10885,0.17794,0.47005,12.0,45.0,74.37,15.0,cruise
5.9259,0.38303,-2.08151,-8.3528,0.001913,-0.00242,0.139599,60.279,1006.0295,0.1076,0.17983,0.46515,12.0,45.0,74.44,15.0,cruise
5.9359,0.36252,-2.12277,-8.56804,-0.000485,-0.00488,0.127095,60.231,1006.0353,0.11309,0.183,0.4778,12.0,45.0,74.52,15.0,cruise
5.9459,0.35719,-2.07069,-8.47323,0.000829,-0.001733,0.132314,60.532,1005.9993,0.10845,0.17885,0.47294,12.0,45.0,74.59,15.0,cruise
5.956,0.32576,-2.0233,-8.3908,0.000537,-0.000238,0.127885,60.324,1006.0241,0.10585,0.19648,0.47078,12.0,45.0,74.67,15.0,cruise
5.966,0.3745,-2.08107,-8.22068,7.5e-05,-0.004303,0.13334,60.397,1006.0154,0.11106,0.18235,0.4708,12.0,45.0,74.74,15.0,cruise
5.976,0.39278,-2.01845,-8.34187,0.004377,-0.001753,0.12988,60.278,1006.0296,0.11138,0.17339,0.4611,12.0,45.0,74.82,15.0,cruise
5.986,0.37467,-2.01153,-8.60052,0.001407,-0.003129,0.131552,60.346,1006.0215,0.10087,0.17686,0.46849,12.0,45.0,74.89,15.0,cruise
5.996,0.31183,-2.15354,-8.52997,-0.000139,-0.003201,0.133178,60.281,1006.0293,0.11124,0.17781,0.46301,12.0,45.0,74.97,15.0,cruise
6.006,0.34979,-0.00908,-9.81674,-20.947,-0.001383,0.287293,60.082,1006.053,0.11127,0.17948,0.47575,0.0,45.0,75.14,2.0,loiter
6.016,0.40529,0.04128,-9.63671,-0.006842,-0.005345,0.394001,60.355,1006.0205,0.09665,0.18259,0.46439,0.0,45.0,75.36,2.0,loiter
6.026,0.39371,0.00363,-9.66209,0.004344,-0.000564,0.396953,60.247,1006.0333,0.11888,0.17698,0.46736,0.0,45.0,75.59,2.0,loiter
6.036,0.37474,-0.01035,-9.84976,0.003169,-0.00819,0.399136,60.269,1006.0307,0.11016,0.17312,0.47128,0.0,45.0,75.81,2.0,loiter
6.046,0.29058,-0.03033,-9.89474,0.002241,-0.005117,0.394199,60.273,1006.0302,0.10557,0.18844,0.47075,0.0,45.0,76.04,2.0,loiter
6.0561,0.30043,-0.00796,-9.62818,0.006057,-0.010845,0.394559,60.44,1006.0103,0.10134,0.18141,0.46867,0.0,45.0,76.26,2.0,loiter
6.0661,0.43142,-0.03127,-9.56778,0.000957,-0.00474,0.397737,60.068,1006.0547,0.09863,0.18105,0.48072,0.0,45.0,76.49,2.0,loiter
6.0761,0.3489,-0.1022,-9.72533,0.002485,0.000432,0.401188,60.511,1006.0018,0.10151,0.17965,0.47812,0.0,45.0,76.71,2.0,loiter
6.0861,0.31211,-0.07982,-9.8921,-0.002631,-0.003322,0.393654,60.41,1006.0139,0.09778,0.17797,0.46198,0.0,45.0,76.94,2.0,loiter
6.0961,0.32894,-0.05561,-9.93978,-0.000279,-0.000749,0.398506,60.183,1006.041,0.09933,0.18929,0.46612,0.0,45.0,77.16,2.0,loiter
6.1061,0.3626,-0.01628,-9.82825,0.001616,-0.001839,0.395989,60.122,1006.0483,0.09809,0.1916,0.48039,0.0,45.0,77.39,2.0,loiter
6.1161,0.46781,-0.0328,-9.60551,-0.000347,-0.001098,0.392,60.043,1006.0577,0.09547,0.18849,0.47144,0.0,45.0,77.61,2.0,loiter
6.1261,0.40447,0.01735,-9.6727,0.002671,-0.002784,0.394577,60.561,1005.9958,0.09706,0.18527,0.47051,0.0,45.0,77.84,2.0,loiter
6.1361,0.32072,-0.06792,-9.8579,-0.000431,-0.002395,0.391947,60.316,1006.0251,0.09842,0.18418,0.45996,0.0,45.0,78.06,2.0,loiter
6.1461,0.34769,-0.05382,-9.96321,0.00339,-0.006165,0.397454,60.291,1006.028,0.08331,0.18631,0.46797,0.0,45.0,78.29,2.0,loiter
6.1562,0.33426,-0.05257,-9.7729,-0.000376,-0.007531,0.39814,60.263,1006.0314,0.09015,0.17995,0.47385,0.0,45.0,78.51,2.0,loiter
6.1662,0.33837,0.0323,-9.65837,-0.000504,-0.005271,0.39246,60.301,1006.0268,0.09414,0.18184,0.46955,0.0,45.0,78.74,2.0,loiter
6.1762,0.42947,-0.07582,-9.69032,-0.001782,-0.005098,0.395086,60.218,1006.0368,0.08603,0.19255,0.4746,0.0,45.0,78.96,2.0,loiter
6.1862,0.2358,-0.11917,-9.83597,0.000213,0.002574,0.396138,60.345,1006.0216,0.08616,0.18855,0.46362,0.0,45.0,79.19,2.0,loiter
6.1962,0.38298,-0.0391,-9.95636,0.003475,0.004792,0.393634,60.383,1006.0171,0.08826,0.18668,0.46246,0.0,45.0,79.41,2.0,loiter
6.2062,0.36115,-0.01474,-9.68037,-0.00434,-0.00277,0.398158,60.264,1006.0313,0.08871,0.18225,0.46534,0.0,45.0,79.64,2.0,loiter
6.2162,0.31202,-0.00632,-9.67965,0.001404,-0.004299,0.392855,60.232,1006.0351,0.08847,0.18392,0.46469,0.0,45.0,79.86,2.0,loiter
6.2262,0.39057,0.06157,-9.68051,-0.000788,-0.002309,0.388164,60.279,1006.0295,0.08586,0.18205,0.46624,0.0,45.0,80.09,2.0,loiter
6.2362,0.31308,0.00519,-9.8081,-0.001742,-0.003505,0.39284,60.421,1006.0125,0.08774,0.18733,0.47268,0.0,45.0,80.32,2.0,loiter
6.2462,0.28764,0.00758,-9.91647,-0.001539,-0.002652,0.398003,60.236,1006.0346,0.0909,0.18388,0.46617,0.0,45.0,80.54,2.0,loiter
6.2563,0.39289,-0.06161,-9.73297,0.002079,-0.004574,0.394098,60.218,1006.0368,0.08705,0.19659,0.46815,0.0,45.0,80.77,2.0,loiter
6.2663,0.42956,0.02597,-9.63008,0.000534,-0.004537,0.395313,60.257,1006.0322,0.07993,0.19236,0.4705,0.0,45.0,80.99,2.0,loiter
6.2763,0.37586,0.07595,-9.77559,0.004851,-0.004611,0.394939,60.212,1006.0375,0.07898,0.19399,0.47928,0.0,45.0,81.22,2.0,loiter
6.2863,0.32329,-0.02696,-9.85674,0.006228,-0.008314,0.395438,60.191,1006.04,0.07096,0.18575,0.47924,0.0,45.0,81.44,2.0,loiter
6.2963,0.28424,-0.02168,-9.85736,0.001015,-0.001615,0.38917,60.193,1006.0398,0.08642,0.18798,0.47184,0.0,45.0,81.67,2.0,loiter
6.3063,0.36564,0.09014,-9.79948,0.005874,-0.00159,0.39939,60.116,1006.049,0.08195,0.18583,0.4707,0.0,45.0,81.89,2.0,loiter
6.3163,0.46347,0.04303,-9.57172,-0.000961,-0.004468,0.394355,60.294,1006.0277,0.07924,0.18313,0.47599,0.0,45.0,82.12,2.0,loiter
6.3263,0.36957,0.08096,-9.68042,0.003001,-0.000314,0.391837,60.355,1006.0204,0.08896,0.1893,0.47451,0.0,45.0,82.34,2.0,loiter
6.3363,0.36959,-0.02772,-9.8472,0.002693,0.000282,0.390254,60.337,1006.0226,0.07754,0.18619,0.47648,0.0,45.0,82.57,2.0,loiter
6.3463,0.27976,-0.1314,-9.87859,-0.003209,-0.00779,0.397056,60.324,1006.0242,0.07996,0.18605,0.46308,0.0,45.0,82.79,2.0,loiter
6.3564,0.29803,-0.03425,-9.84527,0.001985,-0.003385,0.394877,60.323,1006.0242,0.07868,0.19087,0.46828,0.0,45.0,83.02,2.0,loiter
6.3664,0.41078,0.03552,-9.75545,0.002999,-0.001549,0.396006,60.107,1006.0501,0.07431,0.18301,0.47372,0.0,45.0,83.24,2.0,loiter
6.3764,0.31818,-0.03586,-9.65159,-0.000824,-0.00478,0.397023,60.442,1006.01,0.07864,0.19282,0.46884,0.0,45.0,83.47,2.0,loiter
6.3864,0.32572,-0.07474,-9.84532,-0.000508,-0.003293,0.396086,60.478,1006.0058,0.07616,0.19764,0.46647,0.0,45.0,83.69,2.0,loiter
6.3964,0.22434,-0.02645,-9.95848,0.000254,-0.007301,0.391598,60.075,1006.0539,0.07113,0.18679,0.47045,0.0,45.0,83.92,2.0,loiter
6.4064,0.41829,0.01194,-9.86729,0.002896,-0.001648,0.394004,60.297,1006.0274,0.07347,0.18539,0.46909,0.0,45.0,84.14,2.0,loiter
6.4164,0.46063,-0.01209,-9.68773,0.000874,-0.005389,0.38914,60.248,1006.0332,0.07883,0.18875,0.47089,0.0,45.0,84.37,2.0,loiter
6.4264,0.28295,0.033,-9.6712,-0.000924,-0.001454,0.394834,60.141,1006.046,0.07238,0.19501,0.46886,0.0,45.0,84.59,2.0,loiter
6.4364,0.29366,-0.05046,-9.80817,-0.002597,-0.000252,0.392281,60.336,1006.0227,0.06704,0.18627,0.47762,0.0,45.0,84.82,2.0,loiter
6.4464,0.24546,-0.03821,-9.83457,0.003155,-0.005975,0.390466,60.187,1006.0405,0.06979,0.19031,0.46364,0.0,45.0,85.05,2.0,loiter
6.4565,0.31174,-0.06376,-9.7993,0.007046,-0.004779,0.391363,60.13,1006.0473,0.07132,0.18904,0.46552,0.0,45.0,85.27,2.0,loiter
6.4665,0.38286,-0.01715,-9.62328,0.009152,-0.000336,0.394019,60.2,1006.0389,0.06056,0.19299,0.4734,0.0,45.0,85.5,2.0,loiter
6.4765,0.36709,0.07235,-9.67263,0.003418,-0.001103,0.393759,60.157,1006.0441,0.06569,0.1936,0.46746,0.0,45.0,85.72,2.0,loiter
6.4865,0.35998,-0.09499,-9.8093,0.002031,-0.005579,0.393632,60.44,1006.0103,0.05926,0.18409,0.46965,0.0,45.0,85.95,2.0,loiter
6.4965,0.42233,-0.09681,-9.89747,0.001876,-0.003741,0.394796,60.233,1006.035,0.0629,0.1812,0.46988,0.0,45.0,86.17,2.0,loiter
6.5065,0.39902,-0.02189,-9.73988,0.002848,-0.00216,0.392428,60.227,1006.0357,0.05648,0.18823,0.47073,0.0,45.0,86.4,2.0,loiter
6.5165,0.48612,0.04802,-9.68328,-0.003229,-0.00259,0.396768,60.267,1006.031,0.06567,0.18871,0.47359,0.0,45.0,86.62,2.0,loiter
6.5265,0.31126,0.09238,-9.72675,0.003471,-0.002808,0.393991,60.264,1006.0313,0.06338,0.19195,0.47529,0.0,45.0,86.85,2.0,loiter
6.5365,0.40927,-0.02341,-9.75947,0.00136,0.001235,0.395631,60.218,1006.0368,0.06214,0.19223,0.46984,0.0,45.0,87.07,2.0,loiter
6.5465,0.33605,-0.0202,-9.92452,-0.007748,0.003032,0.393445,60.177,1006.0418,0.05475,0.18807,0.46719,0.0,45.0,87.3,2.0,loiter
6.5566,0.31609,-0.06007,-9.77194,0.007176,0.000455,0.397695,60.243,1006.0338,0.06003,0.19193,0.4667,0.0,45.0,87.52,2.0,loiter
6.5666,0.37857,0.06381,-9.5874,0.001283,-0.005589,0.393439,60.084,1006.0528,0.05902,0.19111,0.46865,0.0,45.0,87.75,2.0,loiter
6.5766,0.4039,0.03393,-9.6556,-0.002538,-0.002753,0.395528,60.537,1005.9987,0.05642,0.19262,0.47439,0.0,45.0,87.97,2.0,loiter
6.5866,0.32986,0.01859,-9.78181,0.005204,-0.000624,0.40138,60.208,1006.038,0.06754,0.19373,0.4767,0.0,45.0,88.2,2.0,loiter
6.5966,0.2991,-0.02106,-9.85258,-0.002194,-0.002478,0.387869,60.273,1006.0302,0.05197,0.18883,0.48462,0.0,45.0,88.42,2.0,loiter
6.6066,0.43754,-0.09878,-9.77435,0.003471,-0.003,0.39481,60.341,1006.0221,0.04846,0.18478,0.47086,0.0,45.0,88.65,2.0,loiter
6.6166,0.40414,-0.01477,-9.68339,0.000824,0.000658,0.39405,60.543,1005.9979,0.05084,0.19092,0.46823,0.0,45.0,88.87,2.0,loiter
6.6266,0.4219,-0.02519,-9.5697,-0.003975,0.003148,0.394544,60.383,1006.0171,0.06013,0.19426,0.46635,0.0,45.0,89.1,2.0,loiter
6.6366,0.37062,0.05555,-9.88288,0.007461,-0.000857,0.392974,60.166,1006.043,0.05148,0.18021,0.46792,0.0,45.0,89.32,2.0,loiter
6.6466,0.30171,-0.11723,-9.88706,0.000443,-0.003928,0.393302,60.353,1006.0206,0.0521,0.18649,0.47063,0.0,45.0,89.55,2.0,loiter
6.6567,0.34793,-0.08488,-9.82032,0.002848,-0.000307,0.393596,60.402,1006.0149,0.04597,0.18525,0.46874,0.0,45.0,89.77,2.0,loiter
6.6667,0.47339,0.02858,-9.65936,0.005743,-0.002894,0.400988,60.223,1006.0362,0.04494,0.18917,0.46875,0.0,45.0,90.0,2.0,loiter
6.6767,0.35268,0.14518,-9.64756,0.002501,-0.003425,0.392555,60.454,1006.0086,0.04076,0.18428,0.46876,0.0,45.0,90.23,2.0,loiter
6.6867,0.409,-0.05501,-9.8143,0.001193,0.001833,0.389517,60.41,1006.0138,0.04728,0.19462,0.4659,0.0,45.0,90.45,2.0,loiter
6.6967,0.31563,-0.06822,-9.97493,-0.002727,-0.003805,0.394664,60.186,1006.0406,0.04576,0.18056,0.46815,0.0,45.0,90.68,2.0,loiter
6.7067,0.40004,0.00692,-9.81383,0.001853,-0.004561,0.399133,60.61,1005.99,0.04737,0.20293,0.4666,0.0,45.0,90.9,2.0,loiter
6.7167,0.33494,-0.01503,-9.65833,0.008075,-0.002916,0.391677,60.165,1006.0431,0.05138,0.19494,0.46757,0.0,45.0,91.13,2.0,loiter
6.7267,0.29964,-0.0401,-9.57476,0.003196,-0.001882,0.39985,60.594,1005.9919,0.04463,0.18985,0.46709,0.0,45.0,91.35,2.0,loiter
6.7367,0.32807,-0.10917,-9.90602,-0.004029,0.001167,0.389571,60.592,1005.9921,0.0403,0.1986,0.46817,0.0,45.0,91.58,2.0,loiter
6.7467,0.23594,0.00127,-9.85508,-0.001584,-0.003091,0.391533,60.282,1006.0292,0.04362,0.18813,0.46091,0.0,45.0,91.8,2.0,loiter
6.7568,0.31863,0.00588,-9.82399,0.000126,-0.00489,0.392419,60.511,1006.0018,0.03652,0.19347,0.47024,0.0,45.0,92.03,2.0,loiter
6.7668,0.40906,-0.01683,-9.66724,0.001099,-0.003678,0.395255,60.369,1006.0188,0.05222,0.19122,0.46044,0.0,45.0,92.25,2.0,loiter
6.7768,0.45219,0.00692,-9.55821,0.005538,-0.00362,0.396426,60.211,1006.0376,0.0405,0.19317,0.47557,0.0,45.0,92.48,2.0,loiter
6.7868,0.38796,-0.0299,-9.70416,4e-05,-0.00694,0.390023,60.521,1006.0006,0.03924,0.19055,0.46729,0.0,45.0,92.7,2.0,loiter
6.7968,0.29149,-0.10228,-9.902,0.000835,-0.00083,0.395274,60.236,1006.0346,0.03147,0.18198,0.48513,0.0,45.0,92.93,2.0,loiter
6.8068,0.42066,0.03668,-9.85065,0.001156,-0.004589,0.390323,60.212,1006.0376,0.04453,0.19387,0.46515,0.0,45.0,93.15,2.0,loiter
6.8168,0.38053,0.05658,-9.68025,0.001348,-0.000959,0.395446,60.338,1006.0225,0.03377,0.18686,0.46433,0.0,45.0,93.38,2.0,loiter
6.8268,0.31686,0.01203,-9.61557,-0.003023,-0.001356,0.396627,60.024,1006.0599,0.03482,0.1978,0.47276,0.0,45.0,93.6,2.0,loiter
6.8368,0.25081,0.00028,-9.86216,0.003202,-0.004241,0.394116,60.219,1006.0366,0.03533,0.18667,0.46888,0.0,45.0,93.83,2.0,loiter
6.8468,0.2554,-0.03809,-9.91688,-0.00371,0.000801,0.393746,60.324,1006.0241,0.03827,0.19109,0.47583,0.0,45.0,94.05,2.0,loiter
6.8569,0.33105,0.02053,-9.81474,0.002662,-0.00097,0.397993,60.408,1006.0141,0.03137,0.18618,0.46975,0.0,45.0,94.28,2.0,loiter
6.8669,0.35768,-0.03388,-9.76067,-0.003508,0.003776,0.392291,60.586,1005.9929,0.03474,0.18907,0.4625,0.0,45.0,94.5,2.0,loiter
6.8769,0.39601,0.11329,-9.57663,0.001971,-0.005636,0.391387,60.172,1006.0423,0.03825,0.19741,0.47098,0.0,45.0,94.73,2.0,loiter
6.8869,0.33051,0.04601,-9.87027,0.0013,-0.000798,0.391649,60.205,1006.0384,0.02743,0.19626,0.47957,0.0,45.0,94.95,2.0,loiter
6.8969,0.32005,-0.07613,-9.95585,0.001159,-0.003844,0.393958,60.362,1006.0196,0.02811,0.18815,0.46907,0.0,45.0,95.18,2.0,loiter
6.9069,0.32881,-0.05452,-9.78659,-0.004163,0.002529,0.394675,60.392,1006.0161,0.0329,0.18548,0.46543,0.0,45.0,95.41,2.0,loiter
6.9169,0.34348,0.00563,-9.62176,-0.000605,-0.000358,0.387165,60.242,1006.0339,0.03425,0.18808,0.46585,0.0,45.0,95.63,2.0,loiter
6.9269,0.36349,-0.13217,-9.70339,0.004322,-0.003929,0.392884,59.95,1006.0688,0.0194,0.1948,0.47309,0.0,45.0,95.86,2.0,loiter
6.9369,0.28172,-0.0619,-9.81972,-0.002445,-0.008203,0.393794,60.386,1006.0167,0.02965,0.19314,0.46223,0.0,45.0,96.08,2.0,loiter
6.9469,0.31697,-0.07619,-9.93053,0.000509,-0.004174,0.385225,60.474,1006.0062,0.02748,0.18125,0.47237,0.0,45.0,96.31,2.0,loiter
6.957,0.3211,-0.05441,-9.86692,0.002768,-0.004602,0.39098,60.47,1006.0067,0.02408,0.18783,0.47346,0.0,45.0,96.53,2.0,loiter
6.967,0.36082,-0.00602,-9.64386,-0.003481,-0.001519,0.392007,60.428,1006.0117,0.02685,0.19054,0.46197,0.0,45.0,96.76,2.0,loiter
6.977,0.39166,-0.03889,-9.65234,-0.005798,-0.006818,0.397841,60.355,1006.0204,0.02149,0.18382,0.46458,0.0,45.0,96.98,2.0,loiter
6.987,0.35766,-0.04632,-9.73705,0.000599,-0.002022,0.390119,60.246,1006.0335,0.02328,0.1864,0.46757,0.0,45.0,97.21,2.0,loiter
6.997,0.33048,0.01298,-9.91844,0.004609,-0.000343,0.397528,60.209,1006.0379,0.02051,0.18714,0.47273,0.0,45.0,97.43,2.0,loiter
7.007,0.38198,-0.02848,-9.78792,-0.000522,0.000464,0.397332,60.402,1006.0149,0.02136,0.1916,0.46553,0.0,45.0,97.66,2.0,loiter
7.017,0.4035,0.03141,-9.72781,0.00259,-0.005938,0.392993,60.306,1006.0263,0.01617,0.18833,0.47033,0.0,45.0,97.88,2.0,loiter
7.027,0.3566,0.04857,-9.68665,0.008039,-0.002524,0.39076,60.152,1006.0446,0.02471,0.18576,0.46318,0.0,45.0,98.11,2.0,loiter
7.037,0.39162,-0.04927,-9.77805,0.003988,-0.001374,0.40146,60.041,1006.0579,0.01403,0.1864,0.48131,0.0,45.0,98.33,2.0,loiter
7.047,0.40447,0.00151,-9.96522,-0.000851,-0.004675,0.391938,60.524,1006.0003,0.01604,0.18699,0.47387,0.0,45.0,98.56,2.0,loiter
7.0571,0.25844,-0.03321,-9.8901,0.000304,-0.00394,0.392372,60.334,1006.023,0.01751,0.18632,0.47185,0.0,45.0,98.78,2.0,loiter
7.0671,0.34965,0.04976,-9.67403,-0.000271,-0.004559,0.393564,60.581,1005.9935,0.01523,0.18156,0.47459,0.0,45.0,99.01,2.0,loiter
7.0771,0.37471,0.035,-9.67662,0.005008,-0.00395,0.398481,60.143,1006.0458,0.01323,0.19415,0.47084,0.0,45.0,99.23,2.0,loiter
7.0871,0.4637,-0.0408,-9.79384,0.006876,-0.006705,0.389379,60.181,1006.0413,0.01791,0.17896,0.47299,0.0,45.0,99.46,2.0,loiter
7.0971,0.34096,0.03797,-9.87247,0.002267,0.001917,0.395909,60.231,1006.0353,0.00727,0.18402,0.4698,0.0,45.0,99.68,2.0,loiter
7.1071,0.34932,-0.14334,-9.84933,0.001251,-0.000518,0.399173,60.328,1006.0237,0.00759,0.17763,0.47344,0.0,45.0,99.91,2.0,loiter
7.1171,0.34886,0.0584,-9.59612,-0.003481,-0.000504,0.398168,60.453,1006.0088,0.0008,0.1823,0.4636,0.0,45.0,100.14,2.0,loiter
7.1271,0.42505,0.04234,-9.77909,0.000253,0.000241,0.394728,60.322,1006.0244,0.00861,0.18112,0.46991,0.0,45.0,100.36,2.0,loiter
7.1371,0.35398,0.0048,-9.76813,0.001418,0.001122,0.39313,60.083,1006.0529,0.01197,0.18689,0.47248,0.0,45.0,100.59,2.0,loiter
7.1471,0.25201,0.0272,-9.88889,0.000291,-0.004958,0.39747,60.135,1006.0467,0.02004,0.18303,0.4786,0.0,45.0,100.81,2.0,loiter
7.1572,0.3307,0.04137,-9.87852,0.001213,0.000278,0.396217,60.465,1006.0073,0.00545,0.18636,0.47624,0.0,45.0,101.04,2.0,loiter
7.1672,0.35659,0.04293,-9.67955,0.001774,-0.001896,0.391882,60.261,1006.0317,0.00776,0.18525,0.47786,0.0,45.0,101.26,2.0,loiter
7.1772,0.45027,0.03656,-9.6807,-0.001316,0.003773,0.391231,60.317,1006.025,0.00799,0.18404,0.46499,0.0,45.0,101.49,2.0,loiter
7.1872,0.31351,-0.05223,-9.83477,0.005145,-0.002185,0.392683,60.316,1006.0251,0.00868,0.1837,0.47451,0.0,45.0,101.71,2.0,loiter
7.1972,0.25175,-0.00364,-9.92437,0.001023,-0.004243,0.390549,60.05,1006.0569,0.00068,0.18818,0.46519,0.0,45.0,101.94,2.0,loiter
7.2072,0.26142,-0.08417,-9.86441,0.00013,-0.002565,0.397347,60.487,1006.0046,0.01368,0.17694,0.46572,0.0,45.0,102.16,2.0,loiter
7.2172,0.426,-0.00919,-9.62812,0.00179,0.00255,0.39737,60.459,1006.008,0.00075,0.18439,0.46847,0.0,45.0,102.39,2.0,loiter
7.2272,0.32521,0.09608,-9.60345,0.000115,0.001715,0.392361,60.024,1006.0599,0.007,0.1783,0.46902,0.0,45.0,102.61,2.0,loiter
7.2372,0.36433,-0.00474,-9.75314,0.002914,-0.000542,0.391879,60.344,1006.0217,-0.00641,0.19231,0.46299,0.0,45.0,102.84,2.0,loiter
7.2472,0.29838,-0.12836,-9.95967,0.001208,-0.003787,0.397705,60.334,1006.0229,-0.00204,0.18364,0.4761,0.0,45.0,103.06,2.0,loiter
7.2573,0.38355,-0.09692,-9.8825,0.00259,-0.00112,0.391135,60.412,1006.0136,-0.00502,0.19063,0.47265,0.0,45.0,103.29,2.0,loiter
7.2673,0.33391,-0.01413,-9.70111,0.001628,-0.002798,0.390843,60.091,1006.052,0.00134,0.18534,0.47053,0.0,45.0,103.51,2.0,loiter
7.2773,0.41452,-0.00835,-9.62983,0.008763,0.001337,0.393444,60.221,1006.0364,-0.01655,0.18905,0.47393,0.0,45.0,103.74,2.0,loiter
7.2873,0.32784,-0.09477,-9.8494,0.00247,-0.002453,0.39639,60.313,1006.0255,0.00175,0.18535,0.47414,0.0,45.0,103.96,2.0,loiter
7.2973,0.21132,-0.12389,-9.94042,0.004375,0.003458,0.393812,60.208,1006.038,-0.0137,0.18761,0.46725,0.0,45.0,104.19,2.0,loiter
7.3073,0.48497,-0.07805,-9.74642,0.003383,-0.005263,0.395005,60.416,1006.0132,-0.00589,0.18726,0.47408,0.0,45.0,104.41,2.0,loiter
7.3173,0.41936,0.0106,-9.73568,0.000913,-0.001636,0.388689,60.325,1006.024,-0.00609,0.17637,0.46833,0.0,45.0,104.64,2.0,loiter
7.3273,0.38569,0.11968,-9.62677,0.004252,-0.00253,0.38869,60.401,1006.015,-0.00973,0.18096,0.46474,0.0,45.0,104.86,2.0,loiter
7.3373,0.35973,0.03128,-9.74151,0.005901,0.00301,0.388169,60.121,1006.0484,-0.01632,0.18557,0.46653,0.0,45.0,105.09,2.0,loiter
7.3473,0.29158,-0.07281,-9.90245,-0.003323,-0.005962,0.394294,60.48,1006.0055,-0.00824,0.17823,0.45926,0.0,45.0,105.32,2.0,loiter
7.3574,0.38361,-0.07886,-9.91236,-0.004016,-0.006518,0.391397,60.264,1006.0313,-0.01499,0.18289,0.46877,0.0,45.0,105.54,2.0,loiter
7.3674,0.49972,-0.07474,-9.67153,0.001648,-0.005305,0.39457,60.415,1006.0132,-0.00929,0.18865,0.45911,0.0,45.0,105.77,2.0,loiter
7.3774,0.35965,0.09741,-9.59035,0.002755,0.001481,0.38853,60.419,1006.0128,-0.00529,0.17819,0.48315,0.0,45.0,105.99,2.0,loiter
7.3874,0.36709,-0.13039,-9.76491,-0.00102,0.001269,0.395916,60.21,1006.0377,-0.00393,0.18594,0.46586,0.0,45.0,106.22,2.0,loiter
7.3974,0.30875,-0.03588,-9.9387,0.000148,-0.002107,0.39108,59.965,1006.067,-0.01107,0.17106,0.46503,0.0,45.0,106.44,2.0,loiter
7.4074,0.24651,-0.1255,-9.83673,0.000493,-0.003012,0.390344,60.202,1006.0388,-0.01121,0.1805,0.47411,0.0,45.0,106.67,2.0,loiter
7.4174,0.43593,-0.00313,-9.77509,-0.001106,-0.00252,0.391966,60.142,1006.0459,-0.01358,0.19266,0.46756,0.0,45.0,106.89,2.0,loiter
7.4274,0.40187,-0.04174,-9.57234,0.003789,0.000187,0.398378,60.236,1006.0347,-0.01626,0.1888,0.47316,0.0,45.0,107.12,2.0,loiter
7.4374,0.24741,0.00298,-9.80929,0.003856,-0.000997,0.389061,60.34,1006.0222,-0.01452,0.18182,0.47288,0.0,45.0,107.34,2.0,loiter
7.4474,0.3913,-0.04065,-9.91827,0.0046,0.004528,0.397022,60.331,1006.0233,-0.01424,0.18102,0.47009,0.0,45.0,107.57,2.0,loiter
7.4575,0.44214,-0.08131,-9.8034,0.000776,-0.006651,0.393715,60.218,1006.0368,-0.01434,0.17993,0.46489,0.0,45.0,107.79,2.0,loiter
7.4675,0.46005,0.06332,-9.60603,0.001857,-0.002319,0.396399,60.213,1006.0374,-0.0174,0.17833,0.46269,0.0,45.0,108.02,2.0,loiter
7.4775,0.40839,0.00222,-9.64538,0.002231,0.001614,0.391751,60.25,1006.033,-0.0227,0.17479,0.46703,0.0,45.0,108.24,2.0,loiter
7.4875,0.34932,0.01058,-9.76045,-0.002021,0.00168,0.397162,60.165,1006.0432,-0.01357,0.1803,0.46922,0.0,45.0,108.47,2.0,loiter
7.4975,0.33444,-0.06254,-9.89088,0.001723,-0.003211,0.388243,60.379,1006.0176,-0.02238,0.18228,0.47241,0.0,45.0,108.69,2.0,loiter
7.5075,0.31528,0.00612,-9.85373,0.001651,-0.002599,0.399388,60.193,1006.0398,-0.02294,0.17193,0.47363,0.0,45.0,108.92,2.0,loiter
7.5175,0.35603,-0.01571,-9.71422,0.001363,-0.005929,0.387595,60.369,1006.0188,-0.03272,0.1821,0.47779,0.0,45.0,109.14,2.0,loiter
7.5275,0.39382,0.08965,-9.63328,0.005977,-0.003558,0.387216,60.288,1006.0284,-0.01442,0.18022,0.46742,0.0,45.0,109.37,2.0,loiter
7.5375,0.37639,0.03085,-9.77689,0.009061,-0.003736,0.397327,60.414,1006.0134,-0.02728,0.17514,0.47509,0.0,45.0,109.59,2.0,loiter
7.5475,0.3239,-0.04412,-9.9987,0.003155,-0.001317,0.394118,60.354,1006.0205,-0.02664,0.17401,0.46879,0.0,45.0,109.82,2.0,loiter
7.5576,0.30849,0.06302,-9.82146,-0.00172,0.003915,0.392991,60.304,1006.0265,-0.02092,0.16682,0.46881,0.0,45.0,110.05,2.0,loiter
7.5676,0.35554,0.0169,-9.67287,0.000961,-0.002572,0.397493,60.345,1006.0216,-0.02601,0.17711,0.47918,0.0,45.0,110.27,2.0,loiter
7.5776,0.41084,-0.00091,-9.72637,-0.003098,-0.003608,0.393979,60.217,1006.037,-0.02527,0.17323,0.46543,0.0,45.0,110.5,2.0,loiter
7.5876,0.39152,0.05165,-9.82416,0.001929,-0.007941,0.389882,60.212,1006.0376,-0.02216,0.17188,0.46592,0.0,45.0,110.72,2.0,loiter
7.5976,0.31884,-0.05906,-9.95507,0.007151,-0.003026,0.394666,60.24,1006.0342,-0.02645,0.18164,0.47832,0.0,45.0,110.95,2.0,loiter
7.6076,0.29273,0.00781,-9.84261,0.004101,-0.002502,0.393754,60.44,1006.0102,-0.02468,0.18298,0.47099,0.0,45.0,111.17,2.0,loiter
7.6176,0.37816,-0.11755,-9.77518,4e-06,-0.005527,0.396761,60.103,1006.0505,-0.03277,0.17253,0.47602,0.0,45.0,111.4,2.0,loiter
7.6276,0.37251,0.04764,-9.62024,0.003887,0.00032,0.394228,60.046,1006.0574,-0.03222,0.17442,0.47143,0.0,45.0,111.62,2.0,loiter
7.6376,0.32539,0.04162,-9.7642,-0.001567,-0.003601,0.400105,60.4,1006.0151,-0.02663,0.16899,0.46656,0.0,45.0,111.85,2.0,loiter
7.6476,0.28356,-0.05101,-9.92266,-0.00027,-0.003294,0.391938,60.273,1006.0302,-0.0271,0.16631,0.47173,0.0,45.0,112.07,2.0,loiter
7.6577,0.39913,-0.05673,-9.89915,0.003986,-0.005162,0.394252,60.144,1006.0456,-0.04282,0.17279,0.46368,0.0,45.0,112.3,2.0,loiter
7.6677,0.38203,0.06069,-9.6049,0.0015,0.000852,0.395509,60.243,1006.0339,-0.04389,0.18135,0.46475,0.0,45.0,112.52,2.0,loiter
7.6777,0.47224,0.05208,-9.67787,0.002147,0.004203,0.398931,60.223,1006.0362,-0.03863,0.17339,0.46917,0.0,45.0,112.75,2.0,loiter
7.6877,0.4235,0.02254,-9.84559,0.002602,-0.002715,0.394437,60.337,1006.0225,-0.02987,0.17744,0.46625,0.0,45.0,112.97,2.0,loiter
7.6977,0.31514,-0.08218,-9.99653,0.000895,0.00337,0.389196,60.296,1006.0274,-0.03694,0.17365,0.46519,0.0,45.0,113.2,2.0,loiter
7.7077,0.258,-0.11755,-9.80873,-0.001735,-0.003673,0.400651,60.19,1006.0402,-0.03574,0.17719,0.47508,0.0,45.0,113.42,2.0,loiter
7.7177,0.3151,-0.03182,-9.6854,0.006998,-0.004459,0.392867,60.363,1006.0195,-0.03515,0.17493,0.46577,0.0,45.0,113.65,2.0,loiter
7.7277,0.37684,0.03645,-9.56455,0.000503,-0.002228,0.391251,60.579,1005.9936,-0.03827,0.17657,0.47015,0.0,45.0,113.87,2.0,loiter
7.7377,0.36893,-0.08804,-9.86421,0.004977,-0.00192,0.394933,60.113,1006.0494,-0.04434,0.17614,0.4787,0.0,45.0,114.1,2.0,loiter
7.7477,0.28762,-0.02555,-9.90109,0.000853,0.003393,0.392954,60.486,1006.0048,-0.03871,0.17039,0.47686,0.0,45.0,114.32,2.0,loiter
7.7578,0.34305,-0.05436,-9.80878,0.004979,0.001463,0.382642,60.366,1006.0191,-0.04035,0.16994,0.47305,0.0,45.0,114.55,2.0,loiter
7.7678,0.39384,0.03671,-9.71705,0.005731,0.0002,0.395937,60.374,1006.0182,-0.03641,0.17486,0.46944,0.0,45.0,114.77,2.0,loiter
7.7778,0.45316,0.03454,-9.53117,0.004534,-0.004011,0.401318,59.985,1006.0647,-0.03979,0.16591,0.47941,0.0,45.0,115.0,2.0,loiter
7.7878,0.37841,-0.05168,-9.76616,-0.00089,-0.003062,0.393348,60.187,1006.0405,-0.04241,0.17098,0.46502,0.0,45.0,115.23,2.0,loiter
7.7978,0.23621,-0.04307,-9.88193,0.003451,-0.000488,0.399064,60.45,1006.0091,-0.03114,0.18415,0.46121,0.0,45.0,115.45,2.0,loiter
7.8078,0.21791,-0.0505,-9.85519,0.001035,-2.9e-05,0.393536,60.196,1006.0394,-0.04804,0.16728,0.47422,0.0,45.0,115.68,2.0,loiter
7.8178,0.35548,-0.01243,-9.67843,0.000646,0.00121,0.391582,60.13,1006.0474,-0.04458,0.16992,0.46568,0.0,45.0,115.9,2.0,loiter
7.8278,0.47116,0.12237,-9.65759,0.005692,-0.009272,0.397573,60.171,1006.0424,-0.042,0.16272,0.46966,0.0,45.0,116.13,2.0,loiter
7.8378,0.32665,-0.0214,-9.65762,0.000906,0.004199,0.393191,60.524,1006.0003,-0.05578,0.16571,0.46732,0.0,45.0,116.35,2.0,loiter
7.8478,0.39671,-0.04875,-10.01141,-0.002691,-0.005178,0.39715,60.421,1006.0126,-0.04993,0.16401,0.47358,0.0,45.0,116.58,2.0,loiter
7.8579,0.27032,-0.02793,-9.86439,0.000425,-0.000966,0.394654,60.375,1006.0181,-0.05587,0.16944,0.47513,0.0,45.0,116.8,2.0,loiter
7.8679,0.39481,0.03125,-9.71554,0.003918,-0.001965,0.390899,60.423,1006.0123,-0.05814,0.16739,0.46808,0.0,45.0,117.03,2.0,loiter
7.8779,0.3816,0.0351,-9.66097,0.002782,-0.001971,0.392487,60.501,1006.003,-0.04972,0.16873,0.47708,0.0,45.0,117.25,2.0,loiter
7.8879,0.43833,0.0197,-9.76031,-0.003041,-0.001501,0.397617,60.353,1006.0207,-0.06873,0.16953,0.47466,0.0,45.0,117.48,2.0,loiter
7.8979,0.30532,-0.00786,-9.87337,-0.00079,0.001693,0.390549,60.291,1006.028,-0.05306,0.16065,0.47152,0.0,45.0,117.7,2.0,loiter
7.9079,0.39167,0.01096,-9.84902,-0.003814,-0.006126,0.394849,60.295,1006.0276,-0.05553,0.1739,0.47053,0.0,45.0,117.93,2.0,loiter
7.9179,0.40501,0.04952,-9.71074,0.009041,-0.004938,0.392542,60.159,1006.0439,-0.04599,0.16798,0.46728,0.0,45.0,118.15,2.0,loiter
7.9279,0.36125,0.0958,-9.60706,0.005499,-0.002301,0.395892,60.345,1006.0216,-0.05768,0.16284,0.46408,0.0,45.0,118.38,2.0,loiter
7.9379,0.39419,0.02964,-9.69207,0.003277,-0.002493,0.399007,60.434,1006.011,-0.04838,0.17041,0.46937,0.0,45.0,118.6,2.0,loiter
7.9479,0.34029,-0.01819,-9.96043,-0.00211,-0.006002,0.394042,60.25,1006.033,-0.06326,0.16348,0.46952,0.0,45.0,118.83,2.0,loiter
7.958,0.3845,0.04813,-9.8649,-0.000807,-0.000177,0.394391,60.264,1006.0313,-0.06115,0.15999,0.46911,0.0,45.0,119.05,2.0,loiter
7.968,0.417,0.02432,-9.62566,0.003296,-0.000847,0.393461,60.144,1006.0456,-0.06044,0.15839,0.4572,0.0,45.0,119.28,2.0,loiter
7.978,0.35407,0.10635,-9.60634,0.000129,-0.00094,0.388511,60.342,1006.022,-0.05196,0.16086,0.46114,0.0,45.0,119.5,2.0,loiter
7.988,0.34977,0.05614,-9.72505,-0.002993,0.004973,0.390614,60.264,1006.0314,-0.06429,0.15586,0.46774,0.0,45.0,119.73,2.0,loiter
7.998,0.35331,0.00769,-9.92038,-0.001757,-0.000711,0.395911,60.336,1006.0227,-0.05847,0.16005,0.47049,0.0,45.0,119.95,2.0,loiter
8.008,-0.88135,1e-05,-9.74751,0.001809,-12.219464,0.080668,59.961,1006.0675,-0.05618,0.16273,0.4679,0.0,-5.0,120.0,14.94,descent
8.018,-0.77626,-0.00167,-9.73769,0.002325,-0.001427,0.004175,59.884,1006.0767,-0.06055,0.15817,0.47001,0.0,-5.0,120.0,14.865,descent
8.028,-0.77441,0.0503,-9.57848,0.000982,0.000853,-0.00074,59.831,1006.083,-0.05618,0.15489,0.47093,0.0,-5.0,120.0,14.79,descent
8.038,-0.78692,-0.02437,-9.7779,-0.001857,-0.000503,-0.003968,58.941,1006.1893,-0.05732,0.15941,0.46652,0.0,-5.0,120.0,14.715,descent
8.048,-0.89988,-0.13001,-9.84356,-0.001165,-0.003728,0.002349,58.82,1006.2038,-0.06352,0.15058,0.47184,0.0,-5.0,120.0,14.64,descent
8.0581,-0.86915,-0.08051,-9.91336,0.001276,-0.000673,0.001612,58.804,1006.2057,-0.05648,0.15999,0.47369,0.0,-5.0,120.0,14.565,descent
8.0681,-0.81999,-0.002,-9.62812,-0.001459,-0.002056,0.004897,58.304,1006.2654,-0.06185,0.15199,0.45865,0.0,-5.0,120.0,14.489,descent
8.0781,-0.68878,0.04119,-9.62265,0.002272,-0.004971,0.000334,57.817,1006.3237,-0.06707,0.15,0.46201,0.0,-5.0,120.0,14.414,descent
8.0881,-0.77339,-0.05535,-9.67275,0.0041,-0.002085,0.000425,57.677,1006.3403,-0.06208,0.16655,0.47938,0.0,-5.0,120.0,14.339,descent
8.0981,-0.80189,-0.16345,-9.88739,0.001244,-0.000735,-0.003838,57.096,1006.4098,-0.05347,0.15773,0.46256,0.0,-5.0,120.0,14.264,descent
8.1081,-0.92914,-0.03567,-9.90484,0.001941,-0.005057,-0.0039,57.27,1006.3889,-0.05801,0.15886,0.46739,0.0,-5.0,120.0,14.189,descent
8.1181,-0.75046,0.0246,-9.63902,-0.000524,-0.001978,0.002533,56.674,1006.4602,-0.06048,0.15761,0.472,0.0,-5.0,120.0,14.114,descent
8.1281,-0.85893,0.05459,-9.57757,0.000611,-0.000783,0.000235,56.356,1006.4982,-0.05728,0.16346,0.46746,0.0,-5.0,120.0,14.039,descent
8.1381,-0.85334,-0.01396,-9.72336,0.005801,-0.001182,0.00136,56.016,1006.5388,-0.05631,0.15747,0.46674,0.0,-5.0,120.0,13.964,descent
8.1481,-0.83544,-0.03565,-9.98846,0.00076,-0.001755,0.000309,55.88,1006.5551,-0.06905,0.14637,0.46512,0.0,-5.0,120.0,13.889,descent
8.1582,-0.86044,-0.21705,-9.908,-0.004543,-0.002876,0.007201,55.523,1006.5977,-0.06054,0.16472,0.47011,0.0,-5.0,120.0,13.814,descent
8.1682,-0.83541,0.04042,-9.67623,0.002105,-0.002563,0.000287,55.393,1006.6133,-0.06168,0.16668,0.46476,0.0,-5.0,120.0,13.739,descent
8.1782,-0.721,0.04976,-9.64163,0.002757,-0.00408,0.001415,54.882,1006.6743,-0.06066,0.16523,0.47259,0.0,-5.0,120.0,13.664,descent
8.1882,-0.87873,-0.05697,-9.67865,0.002252,-0.004146,0.00607,54.776,1006.6869,-0.06313,0.15691,0.46886,0.0,-5.0,120.0,13.589,descent
8.1982,-0.88978,0.0084,-9.81204,0.001341,-8.3e-05,0.003774,54.363,1006.7363,-0.05799,0.1635,0.47244,0.0,-5.0,120.0,13.514,descent
8.2082,-0.91432,-0.0905,-9.88262,-0.000879,-0.006538,0.003323,54.106,1006.7671,-0.0667,0.15932,0.46908,0.0,-5.0,120.0,13.438,descent
8.2182,-0.81704,-0.06141,-9.77141,0.002799,-0.00673,0.000602,53.705,1006.815,-0.06062,0.16179,0.47799,0.0,-5.0,120.0,13.363,descent
8.2282,-0.8731,0.0697,-9.71908,0.005429,-0.008242,0.008613,53.395,1006.852,-0.05355,0.16595,0.46782,0.0,-5.0,120.0,13.288,descent
8.2382,-0.83973,-0.04466,-9.64955,-1.3e-05,-0.004573,0.00291,53.018,1006.897,-0.06164,0.16106,0.46679,0.0,-5.0,120.0,13.213,descent
8.2482,-0.89731,0.02299,-9.86928,0.000183,-0.002646,0.002665,52.697,1006.9354,-0.05786,0.1618,0.46106,0.0,-5.0,120.0,13.138,descent
8.2583,-0.78641,0.01568,-9.91039,-0.002116,-0.001445,-0.00297,52.757,1006.9283,-0.06234,0.16863,0.46588,0.0,-5.0,120.0,13.063,descent
8.2683,-0.83277,0.05486,-9.72339,0.002076,0.001139,-0.000354,52.063,1007.0112,-0.06729,0.16344,0.47194,0.0,-5.0,120.0,12.988,descent
8.2783,-0.74009,0.0119,-9.66518,-0.005804,0.006465,0.002909,51.972,1007.0221,-0.05861,0.15337,0.46603,0.0,-5.0,120.0,12.913,descent
8.2883,-0.73352,0.031,-9.72348,-0.002418,-0.003678,0.000401,51.959,1007.0237,-0.06094,0.15458,0.46971,0.0,-5.0,120.0,12.838,descent
8.2983,-0.85871,-0.11714,-9.83631,0.004882,-0.001725,-0.001051,51.272,1007.1058,-0.06829,0.15986,0.47155,0.0,-5.0,120.0,12.763,descent
8.3083,-0.9214,0.03909,-9.83245,-0.004125,-0.007481,-0.001614,51.287,1007.104,-0.05555,0.16864,0.47005,0.0,-5.0,120.0,12.688,descent
8.3183,-0.83875,-0.07179,-9.69312,0.000659,-0.00286,0.006196,50.731,1007.1704,-0.05335,0.15259,0.48344,0.0,-5.0,120.0,12.613,descent
8.3283,-0.81187,0.0608,-9.55042,-0.00025,0.000307,0.003962,50.343,1007.2168,-0.06351,0.16075,0.46942,0.0,-5.0,120.0,12.538,descent
8.3383,-0.74979,0.03427,-9.68509,0.003052,-0.008295,-0.000519,50.193,1007.2347,-0.05442,0.16152,0.47729,0.0,-5.0,120.0,12.462,descent
8.3483,-0.82756,-0.07685,-9.86052,0.002448,-0.003509,0.005921,49.683,1007.2957,-0.05842,0.1642,0.46843,0.0,-5.0,120.0,12.387,descent
8.3584,-0.90385,-0.06212,-9.833,-0.000286,-0.005375,0.004767,49.609,1007.3046,-0.05496,0.16432,0.4809,0.0,-5.0,120.0,12.312,descent
8.3684,-0.77324,-0.04672,-9.69072,-0.000457,-0.003526,-0.002918,49.206,1007.3528,-0.05727,0.1602,0.4645,0.0,-5.0,120.0,12.237,descent
8.3784,-0.86891,0.13115,-9.5777,-0.001257,-0.000794,0.007881,49.042,1007.3724,-0.07394,0.17379,0.46075,0.0,-5.0,120.0,12.162,descent
8.3884,-0.82825,-0.05637,-9.71497,0.002065,-0.008396,0.001043,48.82,1007.3989,-0.06422,0.15357,0.4693,0.0,-5.0,120.0,12.087,descent
8.3984,-0.88659,-0.08128,-9.91046,0.002783,-0.000389,-0.001893,48.209,1007.472,-0.05932,0.1557,0.47089,0.0,-5.0,120.0,12.012,descent
8.4084,-0.80365,-0.06168,-9.93626,0.002409,-0.002701,0.000846,48.119,1007.4827,-0.05654,0.1607,0.4697,0.0,-5.0,120.0,11.937,descent
8.4184,-0.7268,0.04878,-9.67631,0.001635,-0.005187,0.004664,47.769,1007.5246,-0.06289,0.15931,0.46517,0.0,-5.0,120.0,11.862,descent
8.4284,-0.7401,0.05988,-9.58542,0.001117,-0.00421,-0.005111,47.235,1007.5884,-0.06371,0.15606,0.47145,0.0,-5.0,120.0,11.787,descent
8.4384,-0.77648,-0.00461,-9.6041,-0.001104,-0.002582,0.001133,47.311,1007.5794,-0.05947,0.16119,0.46173,0.0,-5.0,120.0,11.712,descent
8.4484,-0.91412,0.00453,-9.95197,0.005274,-0.000674,-0.000953,46.722,1007.6498,-0.05052,0.16758,0.4694,0.0,-5.0,120.0,11.637,descent
8.4585,-0.87095,-0.09132,-9.87051,-0.000789,-0.002418,0.006698,46.532,1007.6725,-0.06524,0.15369,0.47064,0.0,-5.0,120.0,11.562,descent
8.4685,-0.86901,3e-05,-9.80266,0.00331,-0.005375,0.001407,46.195,1007.7128,-0.05141,0.16138,0.47973,0.0,-5.0,120.0,11.486,descent
8.4785,-0.76494,0.09689,-9.60556,0.002279,0.001467,0.003971,46.025,1007.7331,-0.06164,0.15973,0.47569,0.0,-5.0,120.0,11.411,descent
8.4885,-0.74853,-0.02692,-9.70848,-0.001471,0.000317,-0.001515,45.768,1007.7639,-0.05727,0.1578,0.47782,0.0,-5.0,120.0,11.336,descent
8.4985,-0.94101,0.03325,-9.82956,-0.004969,0.002607,0.00418,45.281,1007.8222,-0.06482,0.15268,0.48208,0.0,-5.0,120.0,11.261,descent
8.5085,-0.92421,-0.12289,-9.86538,-0.003655,-0.005115,0.004254,45.114,1007.8421,-0.06193,0.16062,0.46779,0.0,-5.0,120.0,11.186,descent
8.5185,-0.83532,-0.05174,-9.75442,-0.000579,-0.004349,0.004403,44.86,1007.8725,-0.06466,0.15455,0.46921,0.0,-5.0,120.0,11.111,descent
8.5285,-0.68582,-0.02609,-9.60382,0.001521,-0.002493,-0.00011,44.617,1007.9015,-0.05773,0.16475,0.47295,0.0,-5.0,120.0,11.036,descent
8.5385,-0.77037,0.08291,-9.60133,0.008216,0.001501,-0.000718,44.271,1007.943,-0.05645,0.17013,0.46516,0.0,-5.0,120.0,10.961,descent
8.5485,-0.83947,-0.08263,-9.81692,0.000602,-0.000725,-0.002949,43.963,1007.9798,-0.05897,0.16129,0.47975,0.0,-5.0,120.0,10.886,descent
8.5586,-0.89786,-0.04271,-9.87505,0.001845,0.004515,0.001461,43.458,1008.0402,-0.05065,0.15899,0.46197,0.0,-5.0,120.0,10.811,descent
8.5686,-0.8706,-0.07675,-9.81863,0.000161,-0.002359,0.00482,43.337,1008.0546,-0.05708,0.15606,0.47442,0.0,-5.0,120.0,10.736,descent
8.5786,-0.72419,0.0452,-9.57503,-0.002548,0.000999,0.006627,42.991,1008.0961,-0.06297,0.15972,0.4679,0.0,-5.0,120.0,10.661,descent
8.5886,-0.8322,0.03748,-9.65034,0.00427,-0.001052,-0.001303,42.567,1008.1468,-0.06281,0.15959,0.47897,0.0,-5.0,120.0,10.586,descent
8.5986,-0.76909,-0.00551,-9.83342,-0.002832,-0.001513,-0.001071,42.587,1008.1445,-0.06803,0.16245,0.46563,0.0,-5.0,120.0,10.511,descent
8.6086,-0.87997,-0.0265,-9.83013,0.001075,0.000115,-0.000673,42.079,1008.2052,-0.05499,0.16219,0.46735,0.0,-5.0,120.0,10.435,descent
8.6186,-0.84874,0.03569,-9.78682,-0.001587,-0.000369,-2e-06,41.523,1008.2717,-0.05325,0.15503,0.469,0.0,-5.0,120.0,10.36,descent
8.6286,-0.82516,0.01076,-9.64111,0.003384,-0.001834,0.004265,41.35,1008.2924,-0.04933,0.151,0.46207,0.0,-5.0,120.0,10.285,descent
8.6386,-0.72566,0.03007,-9.64357,0.002525,-0.000452,0.002215,40.996,1008.3348,-0.05591,0.16383,0.47714,0.0,-5.0,120.0,10.21,descent
8.6486,-0.7777,-0.02968,-9.89765,0.006558,-0.005216,0.002334,40.802,1008.358,-0.06215,0.16435,0.47122,0.0,-5.0,120.0,10.135,descent
8.6587,-0.85417,-0.1007,-9.8911,-0.001065,-0.002761,0.000957,40.817,1008.3562,-0.0613,0.1499,0.47698,0.0,-5.0,120.0,10.06,descent
8.6687,-0.81361,-0.02241,-9.7578,-0.001595,0.003647,0.001486,39.979,1008.4564,-0.05836,0.16656,0.47078,0.0,-5.0,120.0,9.985,descent
8.6787,-0.83958,-0.024,-9.64368,0.005825,-0.002375,-0.003702,39.997,1008.4543,-0.05929,0.15828,0.4649,0.0,-5.0,120.0,9.91,descent
8.6887,-0.86553,0.06185,-9.64538,0.002695,-0.001439,0.002315,39.569,1008.5055,-0.06103,0.16635,0.47707,0.0,-5.0,120.0,9.835,descent
8.6987,-0.92616,-0.05551,-9.79158,0.006906,0.003175,-0.001051,39.53,1008.5102,-0.05971,0.16575,0.47394,0.0,-5.0,120.0,9.76,descent
8.7087,-0.94354,-0.03264,-9.83372,0.001209,-0.002917,-0.003385,39.141,1008.5567,-0.05896,0.15591,0.46837,0.0,-5.0,120.0,9.685,descent
8.7187,-0.82945,-0.04505,-9.73991,-0.003966,0.001878,0.001373,38.574,1008.6247,-0.0723,0.16567,0.47279,0.0,-5.0,120.0,9.61,descent
8.7287,-0.7844,0.0684,-9.55629,0.001866,-0.002934,7.4e-05,38.501,1008.6333,-0.05301,0.16001,0.47738,0.0,-5.0,120.0,9.535,descent
8.7387,-0.79281,0.02748,-9.53482,0.006245,0.00289,-0.001065,38.467,1008.6375,-0.06041,0.15939,0.4592,0.0,-5.0,120.0,9.459,descent
8.7487,-0.84772,-0.09842,-9.81044,-0.002191,0.003231,0.002978,38.18,1008.6718,-0.06512,0.16827,0.46099,0.0,-5.0,120.0,9.384,descent
8.7588,-0.87003,-0.09208,-9.90772,-0.000243,-0.004903,-0.0025,37.471,1008.7567,-0.05942,0.16634,0.47148,0.0,-5.0,120.0,9.309,descent
8.7688,-0.77976,-0.09198,-9.76551,0.003446,-0.00111,-0.001324,37.377,1008.7679,-0.06266,0.15664,0.47243,0.0,-5.0,120.0,9.234,descent
8.7788,-0.79486,-0.0012,-9.62832,-0.001881,-0.003354,0.004569,36.973,1008.8162,-0.05521,0.16311,0.46694,0.0,-5.0,120.0,9.159,descent
8.7888,-0.89294,-0.03672,-9.68553,-0.000918,0.000753,0.004185,36.968,1008.8168,-0.06382,0.16851,0.47796,0.0,-5.0,120.0,9.084,descent
8.7988,-0.87483,-0.01933,-9.76567,0.001163,-0.002596,-0.000603,35.982,1008.9349,-0.05965,0.15698,0.46462,0.0,-5.0,120.0,9.009,descent
8.8088,-0.85969,-0.13323,-9.8463,0.002786,-0.003406,0.001096,35.857,1008.9498,-0.05625,0.16146,0.47131,0.0,-5.0,120.0,8.934,descent
8.8188,-0.81416,-0.051,-9.82379,0.004225,-0.000128,-0.00034,35.797,1008.9571,-0.05371,0.16622,0.46718,0.0,-5.0,120.0,8.859,descent
8.8288,-0.86976,-0.04103,-9.6175,0.005725,-0.004388,-0.000539,35.343,1009.0114,-0.06266,0.16047,0.4636,0.0,-5.0,120.0,8.784,descent
8.8388,-0.75503,0.00332,-9.52536,-0.002183,0.002571,0.00541,35.073,1009.0437,-0.06198,0.15592,0.46545,0.0,-5.0,120.0,8.709,descent
8.8488,-0.86181,-0.04114,-9.90497,0.008226,-0.002971,0.001427,34.741,1009.0835,-0.06134,0.15874,0.46999,0.0,-5.0,120.0,8.634,descent
8.8589,-0.88145,-0.02079,-9.87653,0.003457,-0.002242,0.001921,34.498,1009.1126,-0.05498,0.16214,0.46921,0.0,-5.0,120.0,8.559,descent
8.8689,-0.84933,-0.02564,-9.75045,0.001175,-0.003887,0.003525,34.358,1009.1293,-0.05108,0.15751,0.47333,0.0,-5.0,120.0,8.483,descent
8.8789,-0.89096,0.06573,-9.67663,-0.001606,-0.001216,-0.000631,33.82,1009.1938,-0.06242,0.16417,0.46534,0.0,-5.0,120.0,8.408,descent
8.8889,-0.81114,-0.00753,-9.60578,0.0039,-0.00772,0.004372,33.542,1009.2271,-0.05882,0.15583,0.47186,0.0,-5.0,120.0,8.333,descent
8.8989,-0.73347,-0.03482,-9.8451,0.000658,-0.006628,0.005589,33.38,1009.2464,-0.06524,0.15544,0.47008,0.0,-5.0,120.0,8.258,descent
8.9089,-0.83449,-0.1187,-9.83354,0.001074,-0.005007,-0.000161,33.295,1009.2566,-0.06694,0.15687,0.47476,0.0,-5.0,120.0,8.183,descent
8.9189,-0.83026,-0.06078,-9.70775,0.004383,-0.001226,-0.0006,32.664,1009.3322,-0.05858,0.15397,0.47664,0.0,-5.0,120.0,8.108,descent
8.9289,-0.71072,0.01223,-9.58772,0.004887,0.003651,0.00591,32.172,1009.3911,-0.06158,0.16303,0.46753,0.0,-5.0,120.0,8.033,descent
8.9389,-0.71814,0.09403,-9.68499,0.000851,-0.00447,0.000673,32.098,1009.4,-0.05523,0.15608,0.45692,0.0,-5.0,120.0,7.958,descent
8.9489,-0.93988,-0.09139,-9.85202,0.001896,-0.00547,-0.002385,31.692,1009.4486,-0.06558,0.15775,0.46701,0.0,-5.0,120.0,7.883,descent
8.959,-0.84652,-0.11097,-9.90825,-0.000318,0.000212,0.000799,31.689,1009.449,-0.06576,0.16028,0.46712,0.0,-5.0,120.0,7.808,descent
8.969,-0.90307,-0.02598,-9.6736,-0.001236,-0.002606,-0.002656,31.012,1009.53,-0.06394,0.15828,0.46797,0.0,-5.0,120.0,7.733,descent
8.979,-0.80731,-0.05917,-9.63871,0.002825,-0.006301,0.000229,30.975,1009.5345,-0.06391,0.16223,0.46239,0.0,-5.0,120.0,7.658,descent
8.989,-0.76174,0.03134,-9.6389,0.004701,-0.003193,-0.000556,30.836,1009.5511,-0.0508,0.15706,0.46943,0.0,-5.0,120.0,7.583,descent
8.999,-0.80622,-0.04314,-9.78644,0.003663,-0.003898,0.002536,30.329,1009.6118,-0.06608,0.15558,0.46674,0.0,-5.0,120.0,7.508,descent
9.009,-0.8345,-0.01382,-9.85373,0.00264,-0.000961,0.002117,30.091,1009.6404,-0.05762,0.1535,0.46605,0.0,-5.0,120.0,7.432,descent
9.019,-0.89408,0.03167,-9.68129,-0.005187,0.002485,0.001547,29.881,1009.6655,-0.05747,0.16773,0.47105,0.0,-5.0,120.0,7.357,descent
9.029,-0.86427,0.01724,-9.58319,0.000682,-0.000232,0.001091,29.34,1009.7303,-0.06543,0.15857,0.47102,0.0,-5.0,120.0,7.282,descent
9.039,-0.90307,-0.02548,-9.7387,-0.000529,0.001396,-0.002301,29.234,1009.743,-0.04576,0.16779,0.47067,0.0,-5.0,120.0,7.207,descent
9.049,-0.81432,-0.10721,-9.89136,0.001412,-0.000975,0.004525,28.743,1009.8018,-0.05903,0.16132,0.46934,0.0,-5.0,120.0,7.132,descent
9.0591,-0.8846,-0.10519,-9.8778,0.001908,-0.003491,0.003235,28.682,1009.8091,-0.05661,0.15531,0.4705,0.0,-5.0,120.0,7.057,descent
9.0691,-0.88919,-0.02048,-9.81299,0.005165,0.000184,0.004698,28.386,1009.8446,-0.06135,0.1584,0.47871,0.0,-5.0,120.0,6.982,descent
9.0791,-0.80464,-0.0461,-9.56019,0.001773,0.002352,0.002,27.925,1009.8999,-0.05237,0.15283,0.46707,0.0,-5.0,120.0,6.907,descent
9.0891,-0.84849,-0.09585,-9.5926,-0.000329,0.000552,0.002421,27.718,1009.9246,-0.06228,0.1567,0.47045,0.0,-5.0,120.0,6.832,descent
9.0991,-0.81011,-0.04036,-9.84458,-0.002259,-0.00154,-0.000422,27.316,1009.9728,-0.06119,0.1583,0.47147,0.0,-5.0,120.0,6.757,descent
9.1091,-0.85337,0.03538,-9.85445,0.006097,-0.004608,-0.003549,27.025,1010.0077,-0.05571,0.16403,0.47606,0.0,-5.0,120.0,6.682,descent
9.1191,-0.97167,0.03606,-9.75462,-0.003316,1.5e-05,0.001744,26.784,1010.0366,-0.055,0.16268,0.46264,0.0,-5.0,120.0,6.607,descent
9.1291,-0.8044,-0.0598,-9.57973,0.005515,-0.005873,-0.000797,26.294,1010.0953,-0.06227,0.16259,0.46778,0.0,-5.0,120.0,6.532,descent
9.1391,-0.77085,0.0679,-9.57825,-0.002022,0.002017,0.005627,26.359,1010.0875,-0.06079,0.15677,0.46508,0.0,-5.0,120.0,6.456,descent
9.1491,-0.91034,-0.03665,-9.76313,0.005258,-0.003591,0.001118,25.81,1010.1533,-0.06318,0.1642,0.47181,0.0,-5.0,120.0,6.381,descent
9.1592,-0.87411,-0.04529,-9.8617,0.003163,-0.004668,0.003908,25.564,1010.1828,-0.06217,0.1617,0.47172,0.0,-5.0,120.0,6.306,descent
9.1692,-0.79181,-0.08011,-9.70844,0.001409,-0.003672,-0.000387,25.075,1010.2414,-0.0687,0.16391,0.4799,0.0,-5.0,120.0,6.231,descent
9.1792,-0.87858,-0.02725,-9.5763,0.001206,0.00036,0.000929,24.838,1010.2698,-0.06113,0.14862,0.46428,0.0,-5.0,120.0,6.156,descent
9.1892,-0.75522,0.0747,-9.56033,0.002657,-0.008909,-0.000679,24.823,1010.2715,-0.05188,0.16734,0.46882,0.0,-5.0,120.0,6.081,descent
9.1992,-0.91934,-0.03826,-9.80118,0.006029,-0.001454,0.001242,24.335,1010.33,-0.058,0.16366,0.46638,0.0,-5.0,120.0,6.006,descent
9.2092,-0.93418,0.00492,-9.97474,0.00627,-0.007864,-0.000568,24.17,1010.3498,-0.06,0.15394,0.47213,0.0,-5.0,120.0,5.931,descent
9.2192,-0.84353,-0.04013,-9.80953,0.001272,-0.003881,0.008491,23.687,1010.4076,-0.06187,0.15782,0.47888,0.0,-5.0,120.0,5.856,descent
9.2292,-0.88025,0.03758,-9.62768,-0.0029,-0.004576,0.002137,23.293,1010.4548,-0.0587,0.16917,0.47085,0.0,-5.0,120.0,5.781,descent
9.2392,-0.87463,-0.02636,-9.64235,0.000315,-0.00165,0.002129,23.382,1010.4442,-0.06002,0.15476,0.47577,0.0,-5.0,120.0,5.706,descent
9.2492,-0.78992,-0.02352,-9.81077,0.003239,-0.002729,-0.00495,22.907,1010.5012,-0.05554,0.16773,0.46635,0.0,-5.0,120.0,5.631,descent
9.2593,-0.86984,-0.05104,-9.88871,0.001719,-0.001983,0.001854,22.633,1010.534,-0.0539,0.15674,0.46914,0.0,-5.0,120.0,5.556,descent
9.2693,-0.86893,-0.0585,-9.86259,0.001461,-0.000662,0.000751,22.221,1010.5835,-0.05791,0.16758,0.4679,0.0,-5.0,120.0,5.48,descent
9.2793,-0.85719,0.01456,-9.52334,-0.00211,-0.000162,0.004685,21.567,1010.6618,-0.05795,0.16354,0.46866,0.0,-5.0,120.0,5.405,descent
9.2893,-0.8333,-0.01285,-9.64196,0.000466,-0.003567,0.000183,21.8,1010.6339,-0.06607,0.15178,0.47603,0.0,-5.0,120.0,5.33,descent
9.2993,-0.86134,-0.05354,-9.80032,0.001991,-0.003674,0.002748,21.177,1010.7086,-0.06151,0.14945,0.47586,0.0,-5.0,120.0,5.255,descent
9.3093,-0.88985,-0.03008,-9.86918,0.003024,-0.002125,0.002391,20.877,1010.7446,-0.06586,0.16002,0.4666,0.0,-5.0,120.0,5.18,descent
9.3193,-0.77755,-0.01245,-9.82119,0.000571,-0.001712,0.001026,20.761,1010.7584,-0.05966,0.15357,0.45925,0.0,-5.0,120.0,5.105,descent
9.3293,-0.81774,0.0465,-9.63774,0.005118,-0.00225,0.005294,20.593,1010.7786,-0.05474,0.15451,0.47009,0.0,-5.0,120.0,5.03,descent
9.3393,-0.73906,0.03099,-9.5954,-0.002751,0.003642,-0.001166,19.821,1010.8712,-0.06176,0.14829,0.46457,0.0,-5.0,120.0,4.955,descent
9.3493,-0.72257,-0.05211,-9.86253,0.001495,-0.004796,0.003799,19.686,1010.8873,-0.05865,0.15479,0.483,0.0,-5.0,120.0,4.88,descent
9.3594,-0.85585,-0.07075,-9.90779,-0.000245,-0.004395,-0.001162,19.771,1010.8771,-0.06276,0.14988,0.46417,0.0,-5.0,120.0,4.805,descent
